time (ms),mag1x [T],mag1y [T],mag1z [T],gyrox rad/s,gyroy rad/s,gyroz rad/s,temp
15352,-1.46E-05,2.72E-05,2.82E-05,-6.53E-02,5.71E-02,2.96E-02,65236
15371,-1.46E-05,2.69E-05,2.78E-05,-6.45E-02,5.65E-02,2.90E-02,65233
15391,-1.43E-05,2.68E-05,2.82E-05,-6.48E-02,5.79E-02,2.86E-02,65230
15411,-1.50E-05,2.69E-05,2.82E-05,-6.48E-02,5.75E-02,2.92E-02,65229
15431,-1.50E-05,2.75E-05,2.86E-05,-6.42E-02,5.69E-02,2.98E-02,65238
15451,-1.49E-05,2.80E-05,2.71E-05,-6.50E-02,5.71E-02,2.96E-02,65234
15471,-1.46E-05,2.65E-05,2.80E-05,-6.50E-02,5.84E-02,2.87E-02,65236
15491,-1.46E-05,2.77E-05,2.78E-05,-6.42E-02,5.79E-02,2.88E-02,65235
15512,-1.43E-05,2.68E-05,2.83E-05,-6.48E-02,5.69E-02,2.88E-02,65233
15532,-1.56E-05,2.62E-05,2.80E-05,-6.41E-02,5.68E-02,2.91E-02,65233
15552,-1.35E-05,2.63E-05,2.71E-05,-6.48E-02,5.80E-02,2.86E-02,65241
15572,-1.41E-05,2.74E-05,2.85E-05,-6.49E-02,5.77E-02,2.90E-02,65240
15592,-1.47E-05,2.77E-05,2.77E-05,-6.50E-02,5.69E-02,2.95E-02,65245
15612,-1.41E-05,2.63E-05,2.74E-05,-6.44E-02,5.85E-02,2.91E-02,65240
15632,-1.53E-05,2.69E-05,2.86E-05,-6.49E-02,5.77E-02,2.91E-02,65228
15652,-1.46E-05,2.72E-05,2.83E-05,-6.48E-02,5.71E-02,2.91E-02,65228
15672,-1.46E-05,2.74E-05,2.86E-05,-6.49E-02,5.76E-02,2.92E-02,65222
15692,-1.41E-05,2.65E-05,2.82E-05,-6.37E-02,5.72E-02,2.90E-02,65233
15713,-1.52E-05,2.60E-05,2.74E-05,-6.33E-02,5.76E-02,2.87E-02,65237
15733,-1.55E-05,2.77E-05,2.77E-05,-6.44E-02,5.77E-02,2.88E-02,65225
15753,-1.40E-05,2.68E-05,2.78E-05,-6.50E-02,5.72E-02,2.94E-02,65232
15773,-1.41E-05,2.66E-05,2.77E-05,-6.40E-02,5.72E-02,2.83E-02,65226
15793,-1.38E-05,2.71E-05,2.78E-05,-6.37E-02,5.64E-02,2.92E-02,65231
15813,-1.47E-05,2.75E-05,2.78E-05,-6.45E-02,5.75E-02,2.98E-02,65237
15833,-1.43E-05,2.75E-05,2.74E-05,-6.49E-02,5.69E-02,2.95E-02,65237
15853,-1.43E-05,2.74E-05,2.78E-05,-6.52E-02,5.67E-02,2.84E-02,65240
15873,-1.49E-05,2.77E-05,2.82E-05,-6.48E-02,5.73E-02,2.87E-02,65237
15893,-1.37E-05,2.69E-05,2.78E-05,-6.44E-02,5.77E-02,2.91E-02,65233
15914,-1.52E-05,2.69E-05,2.77E-05,-6.49E-02,5.64E-02,2.99E-02,65238
15934,-1.41E-05,2.66E-05,2.82E-05,-6.44E-02,5.69E-02,3.02E-02,65232
15954,-1.49E-05,2.63E-05,2.77E-05,-6.44E-02,5.72E-02,2.84E-02,65223
15974,-1.46E-05,2.66E-05,2.74E-05,-6.37E-02,5.75E-02,2.90E-02,65241
15994,-1.44E-05,2.65E-05,2.78E-05,-6.48E-02,5.68E-02,2.96E-02,65238
16014,-1.41E-05,2.65E-05,2.74E-05,-6.50E-02,5.76E-02,2.99E-02,65237
16034,-1.44E-05,2.77E-05,2.78E-05,-6.53E-02,5.75E-02,2.83E-02,65230
16054,-1.44E-05,2.62E-05,2.62E-05,-6.50E-02,5.68E-02,2.87E-02,65239
16074,-1.52E-05,2.71E-05,2.78E-05,-6.52E-02,5.61E-02,2.79E-02,65239
16094,-1.44E-05,2.66E-05,2.77E-05,-6.53E-02,5.72E-02,2.90E-02,65230
16115,-1.44E-05,2.72E-05,2.77E-05,-6.42E-02,5.69E-02,2.87E-02,65232
16135,-1.46E-05,2.74E-05,2.72E-05,-6.50E-02,5.71E-02,2.88E-02,65231
16155,-1.52E-05,2.71E-05,2.80E-05,-6.40E-02,5.73E-02,2.91E-02,65233
16175,-1.49E-05,2.69E-05,2.86E-05,-6.48E-02,5.63E-02,2.92E-02,65239
16195,-1.52E-05,2.68E-05,2.72E-05,-6.41E-02,5.65E-02,2.95E-02,65237
16215,-1.43E-05,2.74E-05,2.72E-05,-6.46E-02,5.72E-02,2.87E-02,65237
16235,-1.46E-05,2.80E-05,2.75E-05,-6.46E-02,5.81E-02,2.83E-02,65234
16255,-1.47E-05,2.68E-05,2.72E-05,-6.49E-02,5.69E-02,2.94E-02,65231
16275,-1.40E-05,2.65E-05,2.80E-05,-6.50E-02,5.73E-02,2.91E-02,65239
16296,-1.50E-05,2.69E-05,2.78E-05,-6.46E-02,5.69E-02,2.90E-02,65230
16316,-1.46E-05,2.72E-05,2.85E-05,-6.46E-02,5.69E-02,2.84E-02,65232
16336,-1.37E-05,2.65E-05,2.78E-05,-6.40E-02,5.72E-02,2.91E-02,65229
16356,-1.50E-05,2.65E-05,2.78E-05,-6.54E-02,5.76E-02,2.94E-02,65231
16376,-1.41E-05,2.65E-05,2.75E-05,-6.46E-02,5.77E-02,2.94E-02,65239
16396,-1.56E-05,2.72E-05,2.83E-05,-6.48E-02,5.71E-02,2.90E-02,65233
16416,-1.52E-05,2.77E-05,2.68E-05,-6.41E-02,5.67E-02,2.86E-02,65226
16436,-1.41E-05,2.71E-05,2.77E-05,-6.48E-02,5.67E-02,2.91E-02,65216
16456,-1.40E-05,2.68E-05,2.78E-05,-6.42E-02,5.71E-02,2.94E-02,65237
16476,-1.50E-05,2.69E-05,2.72E-05,-6.45E-02,5.80E-02,2.99E-02,65237
16497,-1.47E-05,2.71E-05,2.72E-05,-6.50E-02,5.81E-02,2.90E-02,65239
16517,-1.47E-05,2.72E-05,2.77E-05,-6.49E-02,5.65E-02,2.84E-02,65233
16537,-1.40E-05,2.66E-05,2.78E-05,-6.52E-02,5.71E-02,2.90E-02,65236
16557,-1.46E-05,2.77E-05,2.80E-05,-6.33E-02,5.65E-02,2.91E-02,65225
16577,-1.46E-05,2.69E-05,2.74E-05,-6.41E-02,5.67E-02,2.99E-02,65238
16597,-1.53E-05,2.71E-05,2.83E-05,-6.45E-02,5.72E-02,2.91E-02,65233
16617,-1.52E-05,2.65E-05,2.72E-05,-6.50E-02,5.75E-02,2.88E-02,65229
16637,-1.50E-05,2.68E-05,2.72E-05,-6.42E-02,5.71E-02,2.95E-02,65245
16657,-1.50E-05,2.78E-05,2.75E-05,-6.50E-02,5.69E-02,2.87E-02,65223
16678,-1.61E-05,2.75E-05,2.82E-05,-6.41E-02,5.80E-02,2.96E-02,65229
16698,-1.37E-05,2.75E-05,2.78E-05,-6.52E-02,5.85E-02,2.90E-02,65238
16718,-1.56E-05,2.62E-05,2.71E-05,-6.49E-02,5.69E-02,2.88E-02,65235
16738,-1.52E-05,2.74E-05,2.62E-05,-6.42E-02,5.77E-02,2.90E-02,65228
16758,-1.44E-05,2.77E-05,2.69E-05,-6.42E-02,5.80E-02,2.87E-02,65228
16778,-1.47E-05,2.72E-05,2.85E-05,-6.45E-02,5.73E-02,2.91E-02,65229
16798,-1.35E-05,2.69E-05,2.78E-05,-6.49E-02,5.69E-02,2.96E-02,65238
16818,-1.37E-05,2.65E-05,2.85E-05,-6.36E-02,5.63E-02,2.96E-02,65233
16838,-1.38E-05,2.74E-05,2.77E-05,-6.45E-02,5.72E-02,2.87E-02,65235
16858,-1.38E-05,2.72E-05,2.78E-05,-6.48E-02,5.79E-02,2.86E-02,65232
16878,-1.44E-05,2.74E-05,2.80E-05,-6.44E-02,5.81E-02,2.95E-02,65231
16899,-1.50E-05,2.69E-05,2.77E-05,-6.49E-02,5.68E-02,2.92E-02,65229
16919,-1.38E-05,2.72E-05,2.77E-05,-6.46E-02,5.68E-02,2.94E-02,65234
16939,-1.50E-05,2.72E-05,2.74E-05,-6.52E-02,5.65E-02,2.90E-02,65232
16959,-1.35E-05,2.72E-05,2.72E-05,-6.46E-02,5.71E-02,2.94E-02,65234
16979,-1.44E-05,2.63E-05,2.75E-05,-6.54E-02,5.73E-02,2.92E-02,65239
16999,-1.44E-05,2.82E-05,2.74E-05,-6.45E-02,5.84E-02,2.94E-02,65236
17019,-1.40E-05,2.75E-05,2.71E-05,-6.39E-02,5.77E-02,2.87E-02,65239
17039,-1.43E-05,2.71E-05,2.75E-05,-6.40E-02,5.81E-02,2.95E-02,65235
17059,-1.43E-05,2.62E-05,2.80E-05,-6.48E-02,5.73E-02,2.96E-02,65226
17079,-1.55E-05,2.74E-05,2.74E-05,-6.46E-02,5.69E-02,3.03E-02,65225
17100,-1.43E-05,2.69E-05,2.83E-05,-6.46E-02,5.73E-02,2.96E-02,65233
17120,-1.47E-05,2.75E-05,2.71E-05,-6.45E-02,5.83E-02,2.94E-02,65236
17140,-1.46E-05,2.71E-05,2.72E-05,-6.45E-02,5.71E-02,2.82E-02,65238
17160,-1.46E-05,2.72E-05,2.72E-05,-6.37E-02,5.73E-02,2.98E-02,65226
17180,-1.46E-05,2.69E-05,2.80E-05,-6.41E-02,5.68E-02,2.91E-02,65233
17200,-1.40E-05,2.72E-05,2.72E-05,-6.42E-02,5.69E-02,2.87E-02,65243
17220,-1.46E-05,2.75E-05,2.78E-05,-6.48E-02,5.64E-02,2.80E-02,65233
17240,-1.40E-05,2.69E-05,2.75E-05,-6.48E-02,5.76E-02,2.91E-02,65231
17260,-1.40E-05,2.80E-05,2.74E-05,-6.46E-02,5.79E-02,2.95E-02,65231
17280,-1.50E-05,2.65E-05,2.72E-05,-6.37E-02,5.68E-02,2.90E-02,65239
17301,-1.46E-05,2.74E-05,2.68E-05,-6.41E-02,5.69E-02,2.84E-02,65226
17321,-1.49E-05,2.65E-05,2.75E-05,-6.33E-02,5.80E-02,2.94E-02,65230
17341,-1.44E-05,2.66E-05,2.69E-05,-6.42E-02,5.73E-02,3.06E-02,65238
17361,-1.47E-05,2.71E-05,2.74E-05,-6.41E-02,5.71E-02,3.00E-02,65232
17381,-1.49E-05,2.75E-05,2.74E-05,-6.48E-02,5.77E-02,2.91E-02,65225
17401,-1.47E-05,2.69E-05,2.71E-05,-6.39E-02,5.79E-02,2.99E-02,65227
17421,-1.43E-05,2.74E-05,2.71E-05,-6.41E-02,5.73E-02,2.90E-02,65231
17441,-1.40E-05,2.72E-05,2.71E-05,-6.45E-02,5.65E-02,2.92E-02,65230
17461,-1.50E-05,2.77E-05,2.85E-05,-6.39E-02,5.81E-02,2.91E-02,65239
17481,-1.49E-05,2.72E-05,2.69E-05,-6.44E-02,5.77E-02,2.90E-02,65235
17502,-1.41E-05,2.75E-05,2.66E-05,-6.42E-02,5.79E-02,2.82E-02,65239
17522,-1.46E-05,2.71E-05,2.68E-05,-6.40E-02,5.77E-02,2.94E-02,65229
17542,-1.41E-05,2.71E-05,2.71E-05,-6.46E-02,5.71E-02,2.87E-02,65236
17562,-1.44E-05,2.71E-05,2.77E-05,-6.42E-02,5.73E-02,2.91E-02,65239
17582,-1.55E-05,2.74E-05,2.77E-05,-6.48E-02,5.68E-02,2.86E-02,65236
17602,-1.35E-05,2.63E-05,2.82E-05,-6.37E-02,5.75E-02,2.96E-02,65226
17622,-1.46E-05,2.69E-05,2.80E-05,-6.45E-02,5.77E-02,2.95E-02,65228
17642,-1.41E-05,2.75E-05,2.85E-05,-6.41E-02,5.75E-02,2.88E-02,65237
17662,-1.46E-05,2.60E-05,2.69E-05,-6.53E-02,5.73E-02,2.90E-02,65233
17682,-1.41E-05,2.75E-05,2.75E-05,-6.49E-02,5.71E-02,3.04E-02,65236
17703,-1.41E-05,2.74E-05,2.78E-05,-6.52E-02,5.76E-02,2.98E-02,65235
17723,-1.46E-05,2.72E-05,2.68E-05,-6.41E-02,5.75E-02,2.98E-02,65230
17743,-1.53E-05,2.71E-05,2.74E-05,-6.45E-02,5.77E-02,2.92E-02,65232
17763,-1.46E-05,2.69E-05,2.72E-05,-6.42E-02,5.84E-02,2.99E-02,65234
17783,-1.50E-05,2.69E-05,2.85E-05,-6.46E-02,5.85E-02,2.87E-02,65230
17803,-1.53E-05,2.72E-05,2.83E-05,-6.35E-02,5.71E-02,2.83E-02,65232
17823,-1.40E-05,2.63E-05,2.83E-05,-6.45E-02,5.72E-02,2.94E-02,65230
17843,-1.55E-05,2.74E-05,2.75E-05,-6.46E-02,5.71E-02,2.84E-02,65234
17863,-1.44E-05,2.77E-05,2.75E-05,-6.41E-02,5.63E-02,2.87E-02,65229
17883,-1.52E-05,2.65E-05,2.72E-05,-6.45E-02,5.71E-02,2.88E-02,65230
17904,-1.40E-05,2.74E-05,2.80E-05,-6.50E-02,5.72E-02,3.00E-02,65232
17924,-1.46E-05,2.65E-05,2.82E-05,-6.49E-02,5.71E-02,2.96E-02,65233
17944,-1.41E-05,2.69E-05,2.78E-05,-6.40E-02,5.75E-02,2.98E-02,65238
17964,-1.47E-05,2.69E-05,2.78E-05,-6.41E-02,5.83E-02,2.90E-02,65234
17984,-1.47E-05,2.74E-05,2.83E-05,-6.37E-02,5.79E-02,2.84E-02,65235
18004,-1.34E-05,2.78E-05,2.83E-05,-6.35E-02,5.65E-02,2.86E-02,65236
18024,-1.44E-05,2.72E-05,2.74E-05,-6.41E-02,5.71E-02,2.88E-02,65227
18044,-1.50E-05,2.71E-05,2.82E-05,-6.46E-02,5.79E-02,2.84E-02,65233
18064,-1.44E-05,2.72E-05,2.77E-05,-6.52E-02,5.69E-02,2.87E-02,65237
18084,-1.44E-05,2.72E-05,2.75E-05,-6.52E-02,5.71E-02,2.88E-02,65237
18104,-1.43E-05,2.78E-05,2.80E-05,-6.58E-02,5.71E-02,2.90E-02,65233
18125,-1.50E-05,2.66E-05,2.82E-05,-6.49E-02,5.77E-02,2.91E-02,65240
18145,-1.38E-05,2.75E-05,2.63E-05,-6.49E-02,5.72E-02,2.87E-02,65233
18165,-1.47E-05,2.71E-05,2.86E-05,-6.42E-02,5.81E-02,2.95E-02,65231
18185,-1.38E-05,2.77E-05,2.80E-05,-6.49E-02,5.76E-02,2.96E-02,65241
18205,-1.52E-05,2.77E-05,2.78E-05,-6.58E-02,5.81E-02,2.92E-02,65239
18225,-1.49E-05,2.66E-05,2.83E-05,-6.48E-02,5.69E-02,2.90E-02,65235
18245,-1.38E-05,2.74E-05,2.72E-05,-6.42E-02,5.73E-02,2.94E-02,65231
18265,-1.47E-05,2.77E-05,2.83E-05,-6.40E-02,5.79E-02,2.84E-02,65232
18285,-1.38E-05,2.72E-05,2.78E-05,-6.45E-02,5.72E-02,2.84E-02,65235
18305,-1.52E-05,2.68E-05,2.83E-05,-6.48E-02,5.69E-02,2.90E-02,65221
18326,-1.49E-05,2.69E-05,2.74E-05,-6.50E-02,5.76E-02,2.87E-02,65235
18346,-1.46E-05,2.68E-05,2.80E-05,-6.61E-02,5.80E-02,2.95E-02,65237
18366,-1.34E-05,2.74E-05,2.80E-05,-6.46E-02,5.83E-02,2.94E-02,65237
18386,-1.44E-05,2.65E-05,2.78E-05,-6.42E-02,5.76E-02,2.88E-02,65239
18406,-1.50E-05,2.69E-05,2.86E-05,-6.42E-02,5.83E-02,2.84E-02,65233
18426,-1.41E-05,2.68E-05,2.78E-05,-6.42E-02,5.72E-02,2.90E-02,65234
18446,-1.47E-05,2.74E-05,2.83E-05,-6.46E-02,5.71E-02,2.94E-02,65223
18466,-1.40E-05,2.69E-05,2.77E-05,-6.50E-02,5.77E-02,2.94E-02,65226
18486,-1.35E-05,2.68E-05,2.83E-05,-6.50E-02,5.72E-02,2.98E-02,65231
18506,-1.47E-05,2.74E-05,2.74E-05,-6.49E-02,5.72E-02,2.98E-02,65230
18527,-1.38E-05,2.63E-05,2.74E-05,-6.48E-02,5.72E-02,2.96E-02,65245
18547,-1.44E-05,2.74E-05,2.75E-05,-6.46E-02,5.76E-02,2.92E-02,65232
18567,-1.41E-05,2.69E-05,2.77E-05,-6.44E-02,5.77E-02,2.87E-02,65236
18587,-1.43E-05,2.68E-05,2.72E-05,-6.45E-02,5.81E-02,2.86E-02,65238
18607,-1.38E-05,2.69E-05,2.82E-05,-6.42E-02,5.75E-02,2.86E-02,65228
18627,-1.46E-05,2.74E-05,2.69E-05,-6.49E-02,5.71E-02,2.94E-02,65232
18647,-1.41E-05,2.74E-05,2.68E-05,-6.36E-02,5.69E-02,2.96E-02,65234
18667,-1.41E-05,2.78E-05,2.69E-05,-6.46E-02,5.72E-02,2.94E-02,65241
18687,-1.56E-05,2.77E-05,2.78E-05,-6.39E-02,5.76E-02,2.90E-02,65227
18707,-1.47E-05,2.68E-05,2.82E-05,-6.54E-02,5.71E-02,2.92E-02,65231
18728,-1.44E-05,2.66E-05,2.74E-05,-6.44E-02,5.71E-02,2.91E-02,65233
18748,-1.30E-05,2.68E-05,2.75E-05,-6.45E-02,5.77E-02,2.84E-02,65229
18768,-1.43E-05,2.72E-05,2.83E-05,-6.41E-02,5.69E-02,2.86E-02,65236
18788,-1.43E-05,2.68E-05,2.75E-05,-6.39E-02,5.81E-02,2.94E-02,65243
18808,-1.46E-05,2.72E-05,2.75E-05,-6.46E-02,5.75E-02,2.80E-02,65233
18828,-1.41E-05,2.71E-05,2.85E-05,-6.46E-02,5.63E-02,2.87E-02,65234
18848,-1.52E-05,2.69E-05,2.77E-05,-6.54E-02,5.71E-02,2.87E-02,65235
18868,-1.52E-05,2.75E-05,2.78E-05,-6.48E-02,5.76E-02,2.92E-02,65230
18888,-1.41E-05,2.71E-05,2.75E-05,-6.45E-02,5.84E-02,2.91E-02,65239
18908,-1.43E-05,2.74E-05,2.75E-05,-6.46E-02,5.79E-02,3.03E-02,65227
18929,-1.50E-05,2.66E-05,2.74E-05,-6.37E-02,5.64E-02,2.87E-02,65235
18949,-1.41E-05,2.75E-05,2.66E-05,-6.42E-02,5.75E-02,2.95E-02,65228
18969,-1.50E-05,2.75E-05,2.80E-05,-6.48E-02,5.81E-02,2.87E-02,65235
18989,-1.49E-05,2.71E-05,2.88E-05,-6.45E-02,5.79E-02,2.95E-02,65241
19009,-1.46E-05,2.72E-05,2.77E-05,-6.39E-02,5.80E-02,2.92E-02,65225
19029,-1.50E-05,2.66E-05,2.74E-05,-6.46E-02,5.71E-02,2.91E-02,65239
19049,-1.43E-05,2.78E-05,2.85E-05,-6.45E-02,5.73E-02,2.88E-02,65225
19069,-1.41E-05,2.74E-05,2.77E-05,-6.46E-02,5.76E-02,2.95E-02,65234
19089,-1.52E-05,2.71E-05,2.78E-05,-6.54E-02,5.79E-02,2.86E-02,65222
19109,-1.35E-05,2.72E-05,2.74E-05,-6.52E-02,5.75E-02,2.86E-02,65224
19130,-1.44E-05,2.74E-05,2.74E-05,-6.60E-02,5.80E-02,2.80E-02,65231
19150,-1.41E-05,2.74E-05,2.78E-05,-6.53E-02,5.85E-02,2.94E-02,65229
19170,-1.49E-05,2.75E-05,2.86E-05,-6.42E-02,5.77E-02,2.92E-02,65229
19190,-1.32E-05,2.60E-05,2.85E-05,-6.41E-02,5.72E-02,2.86E-02,65244
19210,-1.47E-05,2.60E-05,2.71E-05,-6.40E-02,5.73E-02,2.86E-02,65234
19230,-1.41E-05,2.65E-05,2.78E-05,-6.45E-02,5.73E-02,2.83E-02,65245
19250,-1.44E-05,2.72E-05,2.83E-05,-6.45E-02,5.64E-02,2.86E-02,65232
19270,-1.44E-05,2.83E-05,2.77E-05,-6.33E-02,5.65E-02,2.90E-02,65239
19290,-1.47E-05,2.71E-05,2.78E-05,-6.42E-02,5.76E-02,2.92E-02,65229
19310,-1.44E-05,2.69E-05,2.74E-05,-6.33E-02,5.77E-02,2.90E-02,65226
19331,-1.53E-05,2.69E-05,2.69E-05,-6.41E-02,5.71E-02,2.74E-02,65228
19351,-1.46E-05,2.75E-05,2.83E-05,-6.39E-02,5.80E-02,2.76E-02,65235
19371,-1.46E-05,2.77E-05,2.71E-05,-6.48E-02,5.80E-02,2.88E-02,65227
19391,-1.41E-05,2.74E-05,2.82E-05,-6.41E-02,5.73E-02,2.90E-02,65233
19411,-1.49E-05,2.68E-05,2.86E-05,-6.50E-02,5.79E-02,2.87E-02,65228
19431,-1.49E-05,2.72E-05,2.71E-05,-6.35E-02,5.77E-02,2.83E-02,65229
19451,-1.55E-05,2.60E-05,2.82E-05,-6.40E-02,5.73E-02,2.84E-02,65236
19471,-1.41E-05,2.78E-05,2.75E-05,-6.41E-02,5.76E-02,2.80E-02,65218
19491,-1.49E-05,2.78E-05,2.75E-05,-6.52E-02,5.80E-02,2.82E-02,65249
19511,-1.44E-05,2.74E-05,2.83E-05,-6.41E-02,5.80E-02,2.86E-02,65232
19532,-1.46E-05,2.74E-05,2.75E-05,-6.39E-02,5.73E-02,2.90E-02,65237
19552,-1.38E-05,2.63E-05,2.78E-05,-6.42E-02,5.65E-02,2.91E-02,65239
19572,-1.41E-05,2.80E-05,2.75E-05,-6.41E-02,5.69E-02,2.95E-02,65230
19592,-1.41E-05,2.77E-05,2.82E-05,-6.45E-02,5.68E-02,2.92E-02,65236
19612,-1.46E-05,2.63E-05,2.78E-05,-6.48E-02,5.77E-02,2.98E-02,65232
19632,-1.43E-05,2.69E-05,2.72E-05,-6.50E-02,5.81E-02,2.95E-02,65235
19652,-1.41E-05,2.66E-05,2.75E-05,-6.50E-02,5.79E-02,2.95E-02,65236
19672,-1.43E-05,2.71E-05,2.80E-05,-6.52E-02,5.76E-02,2.98E-02,65232
19692,-1.37E-05,2.66E-05,2.82E-05,-6.42E-02,5.72E-02,2.94E-02,65242
19712,-1.50E-05,2.75E-05,2.88E-05,-6.45E-02,5.71E-02,2.83E-02,65237
19732,-1.47E-05,2.69E-05,2.82E-05,-6.45E-02,5.85E-02,2.83E-02,65227
19753,-1.47E-05,2.69E-05,2.69E-05,-6.44E-02,5.75E-02,2.94E-02,65233
19773,-1.49E-05,2.75E-05,2.78E-05,-6.36E-02,5.72E-02,2.83E-02,65232
19793,-1.40E-05,2.75E-05,2.74E-05,-6.36E-02,5.71E-02,2.87E-02,65233
19813,-1.41E-05,2.68E-05,2.83E-05,-6.37E-02,5.68E-02,2.92E-02,65228
19833,-1.41E-05,2.68E-05,2.78E-05,-6.46E-02,5.80E-02,2.90E-02,65241
19853,-1.47E-05,2.75E-05,2.68E-05,-6.41E-02,5.73E-02,2.96E-02,65224
19873,-1.56E-05,2.71E-05,2.68E-05,-6.48E-02,5.69E-02,2.96E-02,65237
19893,-1.46E-05,2.66E-05,2.72E-05,-6.46E-02,5.75E-02,2.92E-02,65228
19913,-1.46E-05,2.77E-05,2.88E-05,-6.49E-02,5.80E-02,2.92E-02,65235
19933,-1.43E-05,2.72E-05,2.80E-05,-6.54E-02,5.73E-02,2.90E-02,65227
19954,-1.37E-05,2.71E-05,2.74E-05,-6.35E-02,5.75E-02,2.86E-02,65238
19974,-1.52E-05,2.63E-05,2.74E-05,-6.36E-02,5.71E-02,2.98E-02,65229
19994,-1.43E-05,2.68E-05,2.74E-05,-6.35E-02,5.72E-02,2.98E-02,65229
20014,-1.56E-05,2.71E-05,2.91E-05,-6.40E-02,5.77E-02,3.02E-02,65222
20034,-1.44E-05,2.68E-05,2.72E-05,-6.52E-02,5.69E-02,2.86E-02,65227
20054,-1.47E-05,2.69E-05,2.72E-05,-6.48E-02,5.83E-02,2.88E-02,65233
20074,-1.50E-05,2.74E-05,2.75E-05,-6.45E-02,5.77E-02,2.83E-02,65231
20094,-1.47E-05,2.72E-05,2.82E-05,-6.48E-02,5.71E-02,2.98E-02,65235
20114,-1.49E-05,2.65E-05,2.85E-05,-6.40E-02,5.67E-02,2.90E-02,65238
20135,-1.50E-05,2.74E-05,2.78E-05,-6.39E-02,5.77E-02,2.91E-02,65228
20155,-1.53E-05,2.68E-05,2.75E-05,-6.36E-02,5.80E-02,2.86E-02,65234
20175,-1.40E-05,2.63E-05,2.85E-05,-6.52E-02,5.72E-02,2.83E-02,65238
20195,-1.43E-05,2.65E-05,2.78E-05,-6.49E-02,5.75E-02,2.76E-02,65240
20215,-1.49E-05,2.72E-05,2.77E-05,-6.44E-02,5.71E-02,2.86E-02,65235
20235,-1.44E-05,2.74E-05,2.85E-05,-6.40E-02,5.64E-02,2.83E-02,65238
20255,-1.46E-05,2.71E-05,2.72E-05,-6.50E-02,5.68E-02,2.87E-02,65241
20275,-1.34E-05,2.74E-05,2.69E-05,-6.49E-02,5.65E-02,2.86E-02,65243
20295,-1.41E-05,2.68E-05,2.85E-05,-6.52E-02,5.77E-02,2.92E-02,65237
20315,-1.34E-05,2.69E-05,2.78E-05,-6.36E-02,5.79E-02,2.83E-02,65235
20336,-1.50E-05,2.71E-05,2.83E-05,-6.48E-02,5.80E-02,2.82E-02,65227
20356,-1.49E-05,2.71E-05,2.77E-05,-6.50E-02,5.76E-02,2.84E-02,65231
320357,-1.44E-05,2.72E-05,2.77E-05,-6.44E-02,5.72E-02,2.90E-02,65203
320375,-1.49E-05,2.71E-05,2.82E-05,-6.45E-02,5.69E-02,2.92E-02,65197
320394,-1.41E-05,2.75E-05,2.72E-05,-6.50E-02,5.63E-02,3.02E-02,65210
320413,-1.41E-05,2.74E-05,2.80E-05,-6.46E-02,5.75E-02,2.90E-02,65217
320432,-1.49E-05,2.80E-05,2.80E-05,-6.56E-02,5.77E-02,2.90E-02,65205
320451,-1.53E-05,2.75E-05,2.83E-05,-6.56E-02,5.75E-02,2.87E-02,65210
320470,-1.52E-05,2.75E-05,2.69E-05,-6.52E-02,5.80E-02,2.84E-02,65208
320490,-1.50E-05,2.63E-05,2.69E-05,-6.37E-02,5.69E-02,2.91E-02,65211
320509,-1.43E-05,2.78E-05,2.72E-05,-6.33E-02,5.71E-02,2.91E-02,65198
320528,-1.50E-05,2.78E-05,2.80E-05,-6.44E-02,5.73E-02,2.96E-02,65211
320547,-1.47E-05,2.75E-05,2.75E-05,-6.41E-02,5.81E-02,2.84E-02,65214
320566,-1.49E-05,2.71E-05,2.78E-05,-6.50E-02,5.77E-02,2.86E-02,65205
320586,-1.46E-05,2.65E-05,2.78E-05,-6.46E-02,5.76E-02,2.83E-02,65212
320605,-1.52E-05,2.71E-05,2.68E-05,-6.54E-02,5.69E-02,2.88E-02,65204
320624,-1.47E-05,2.74E-05,2.83E-05,-6.41E-02,5.73E-02,2.91E-02,65210
320643,-1.47E-05,2.74E-05,2.75E-05,-6.37E-02,5.72E-02,2.90E-02,65200
320662,-1.35E-05,2.82E-05,2.78E-05,-6.41E-02,5.77E-02,2.79E-02,65201
320681,-1.44E-05,2.68E-05,2.77E-05,-6.41E-02,5.76E-02,2.87E-02,65208
320701,-1.50E-05,2.75E-05,2.80E-05,-6.48E-02,5.73E-02,2.98E-02,65208
320721,-1.49E-05,2.71E-05,2.78E-05,-6.54E-02,5.72E-02,2.92E-02,65205
320741,-1.46E-05,2.69E-05,2.74E-05,-6.44E-02,5.72E-02,2.92E-02,65209
320761,-1.46E-05,2.71E-05,2.72E-05,-6.36E-02,5.65E-02,2.84E-02,65208
320781,-1.46E-05,2.72E-05,2.74E-05,-6.32E-02,5.65E-02,2.84E-02,65190
320801,-1.44E-05,2.71E-05,2.83E-05,-6.44E-02,5.80E-02,2.86E-02,65202
320821,-1.49E-05,2.78E-05,2.80E-05,-6.52E-02,5.80E-02,2.90E-02,65200
320842,-1.40E-05,2.60E-05,2.72E-05,-6.44E-02,5.73E-02,2.88E-02,65207
320862,-1.41E-05,2.77E-05,2.80E-05,-6.42E-02,5.80E-02,2.84E-02,65215
320882,-1.43E-05,2.74E-05,2.77E-05,-6.40E-02,5.76E-02,2.83E-02,65202
320902,-1.40E-05,2.66E-05,2.83E-05,-6.39E-02,5.73E-02,2.87E-02,65209
320922,-1.44E-05,2.66E-05,2.77E-05,-6.45E-02,5.75E-02,2.88E-02,65206
320942,-1.44E-05,2.71E-05,2.71E-05,-6.46E-02,5.77E-02,2.98E-02,65206
320962,-1.46E-05,2.68E-05,2.74E-05,-6.45E-02,5.79E-02,2.83E-02,65198
320982,-1.43E-05,2.63E-05,2.78E-05,-6.48E-02,5.88E-02,2.90E-02,65201
321002,-1.40E-05,2.65E-05,2.82E-05,-6.50E-02,5.77E-02,2.88E-02,65211
321022,-1.50E-05,2.74E-05,2.80E-05,-6.49E-02,5.79E-02,2.80E-02,65201
321043,-1.43E-05,2.68E-05,2.72E-05,-6.45E-02,5.79E-02,2.82E-02,65203
321063,-1.43E-05,2.77E-05,2.86E-05,-6.39E-02,5.71E-02,2.79E-02,65208
321083,-1.44E-05,2.65E-05,2.71E-05,-6.33E-02,5.73E-02,2.84E-02,65208
321103,-1.41E-05,2.69E-05,2.91E-05,-6.54E-02,5.79E-02,2.88E-02,65204
321123,-1.53E-05,2.74E-05,2.75E-05,-6.50E-02,5.81E-02,2.94E-02,65194
321143,-1.34E-05,2.83E-05,2.86E-05,-6.58E-02,5.75E-02,2.90E-02,65207
321163,-1.46E-05,2.71E-05,2.72E-05,-6.40E-02,5.77E-02,2.82E-02,65192
321183,-1.40E-05,2.68E-05,2.78E-05,-6.44E-02,5.71E-02,2.92E-02,65203
321203,-1.43E-05,2.62E-05,2.66E-05,-6.52E-02,5.73E-02,2.91E-02,65204
321223,-1.49E-05,2.72E-05,2.80E-05,-6.53E-02,5.81E-02,2.88E-02,65201
321243,-1.49E-05,2.86E-05,2.78E-05,-6.49E-02,5.69E-02,2.94E-02,65199
321264,-1.38E-05,2.72E-05,2.77E-05,-6.49E-02,5.72E-02,2.91E-02,65204
321284,-1.47E-05,2.69E-05,2.82E-05,-6.44E-02,5.61E-02,2.80E-02,65205
321304,-1.52E-05,2.74E-05,2.78E-05,-6.41E-02,5.71E-02,2.88E-02,65203
321324,-1.46E-05,2.72E-05,2.80E-05,-6.45E-02,5.81E-02,2.88E-02,65211
321344,-1.46E-05,2.74E-05,2.72E-05,-6.42E-02,5.73E-02,2.96E-02,65199
321364,-1.44E-05,2.63E-05,2.74E-05,-6.53E-02,5.76E-02,2.91E-02,65196
321384,-1.46E-05,2.68E-05,2.91E-05,-6.49E-02,5.83E-02,2.99E-02,65211
321404,-1.50E-05,2.75E-05,2.86E-05,-6.48E-02,5.71E-02,2.86E-02,65203
321424,-1.47E-05,2.65E-05,2.80E-05,-6.40E-02,5.69E-02,2.94E-02,65207
321444,-1.52E-05,2.78E-05,2.78E-05,-6.39E-02,5.77E-02,2.90E-02,65206
321465,-1.44E-05,2.68E-05,2.77E-05,-6.48E-02,5.68E-02,2.84E-02,65200
321485,-1.40E-05,2.75E-05,2.85E-05,-6.56E-02,5.68E-02,2.83E-02,65201
321505,-1.44E-05,2.72E-05,2.78E-05,-6.40E-02,5.63E-02,2.86E-02,65195
321525,-1.46E-05,2.69E-05,2.69E-05,-6.53E-02,5.69E-02,2.96E-02,65198
321545,-1.44E-05,2.75E-05,2.77E-05,-6.54E-02,5.72E-02,2.88E-02,65204
321565,-1.52E-05,2.72E-05,2.80E-05,-6.46E-02,5.84E-02,2.91E-02,65207
321585,-1.35E-05,2.71E-05,2.77E-05,-6.39E-02,5.76E-02,2.94E-02,65207
321605,-1.49E-05,2.59E-05,2.83E-05,-6.41E-02,5.69E-02,2.95E-02,65198
321625,-1.46E-05,2.75E-05,2.68E-05,-6.44E-02,5.76E-02,3.00E-02,65207
321645,-1.52E-05,2.88E-05,2.71E-05,-6.53E-02,5.69E-02,2.87E-02,65207
321666,-1.46E-05,2.75E-05,2.78E-05,-6.44E-02,5.73E-02,2.91E-02,65192
321686,-1.46E-05,2.72E-05,2.78E-05,-6.45E-02,5.69E-02,2.91E-02,65204
321706,-1.44E-05,2.65E-05,2.80E-05,-6.42E-02,5.80E-02,3.00E-02,65205
321726,-1.43E-05,2.69E-05,2.77E-05,-6.48E-02,5.77E-02,2.82E-02,65197
321746,-1.50E-05,2.74E-05,2.85E-05,-6.56E-02,5.77E-02,2.84E-02,65199
321766,-1.46E-05,2.68E-05,2.80E-05,-6.60E-02,5.81E-02,2.90E-02,65195
321786,-1.41E-05,2.65E-05,2.85E-05,-6.60E-02,5.77E-02,2.95E-02,65209
321806,-1.46E-05,2.72E-05,2.82E-05,-6.35E-02,5.77E-02,2.87E-02,65197
321826,-1.55E-05,2.78E-05,2.71E-05,-6.46E-02,5.79E-02,2.82E-02,65212
321846,-1.53E-05,2.75E-05,2.82E-05,-6.39E-02,5.65E-02,2.86E-02,65212
321866,-1.55E-05,2.71E-05,2.71E-05,-6.40E-02,5.80E-02,2.95E-02,65203
321886,-1.49E-05,2.77E-05,2.75E-05,-6.44E-02,5.76E-02,2.94E-02,65197
321907,-1.49E-05,2.80E-05,2.83E-05,-6.36E-02,5.73E-02,2.92E-02,65209
321927,-1.46E-05,2.66E-05,2.83E-05,-6.46E-02,5.72E-02,2.82E-02,65199
321947,-1.38E-05,2.72E-05,2.83E-05,-6.46E-02,5.75E-02,2.99E-02,65193
321967,-1.47E-05,2.69E-05,2.75E-05,-6.45E-02,5.80E-02,2.98E-02,65201
321987,-1.49E-05,2.69E-05,2.80E-05,-6.42E-02,5.72E-02,2.84E-02,65208
322007,-1.44E-05,2.68E-05,2.83E-05,-6.36E-02,5.67E-02,2.82E-02,65203
322027,-1.40E-05,2.69E-05,2.77E-05,-6.54E-02,5.85E-02,2.90E-02,65205
322047,-1.52E-05,2.69E-05,2.75E-05,-6.41E-02,5.79E-02,2.99E-02,65206
322067,-1.50E-05,2.78E-05,2.78E-05,-6.42E-02,5.65E-02,2.94E-02,65201
322087,-1.47E-05,2.66E-05,2.69E-05,-6.45E-02,5.71E-02,2.82E-02,65208
322107,-1.47E-05,2.72E-05,2.77E-05,-6.37E-02,5.80E-02,2.88E-02,65208
322128,-1.47E-05,2.72E-05,2.80E-05,-6.44E-02,5.77E-02,2.79E-02,65203
322148,-1.50E-05,2.75E-05,2.74E-05,-6.42E-02,5.73E-02,2.86E-02,65201
322168,-1.44E-05,2.71E-05,2.74E-05,-6.52E-02,5.81E-02,2.80E-02,65214
322188,-1.52E-05,2.71E-05,2.80E-05,-6.50E-02,5.81E-02,2.84E-02,65205
322208,-1.47E-05,2.75E-05,2.78E-05,-6.45E-02,5.75E-02,2.87E-02,65207
322228,-1.49E-05,2.60E-05,2.77E-05,-6.49E-02,5.69E-02,2.84E-02,65210
322248,-1.44E-05,2.75E-05,2.77E-05,-6.52E-02,5.79E-02,2.83E-02,65206
322268,-1.52E-05,2.66E-05,2.75E-05,-6.42E-02,5.75E-02,2.94E-02,65190
322288,-1.47E-05,2.66E-05,2.80E-05,-6.46E-02,5.67E-02,2.88E-02,65206
322308,-1.47E-05,2.69E-05,2.77E-05,-6.49E-02,5.77E-02,2.90E-02,65208
322329,-1.47E-05,2.75E-05,2.83E-05,-6.35E-02,5.71E-02,2.83E-02,65209
322349,-1.46E-05,2.74E-05,2.88E-05,-6.37E-02,5.69E-02,2.84E-02,65204
322369,-1.46E-05,2.80E-05,2.82E-05,-6.60E-02,5.77E-02,2.95E-02,65215
322389,-1.40E-05,2.68E-05,2.88E-05,-6.52E-02,5.75E-02,2.79E-02,65200
322409,-1.40E-05,2.62E-05,2.88E-05,-6.45E-02,5.76E-02,2.84E-02,65204
322429,-1.38E-05,2.68E-05,2.86E-05,-6.41E-02,5.75E-02,2.83E-02,65201
322449,-1.53E-05,2.71E-05,2.83E-05,-6.52E-02,5.67E-02,2.83E-02,65200
322469,-1.47E-05,2.66E-05,2.82E-05,-6.50E-02,5.68E-02,2.83E-02,65197
322489,-1.50E-05,2.77E-05,2.83E-05,-6.44E-02,5.68E-02,2.82E-02,65196
322509,-1.40E-05,2.78E-05,2.83E-05,-6.52E-02,5.73E-02,2.87E-02,65211
322530,-1.38E-05,2.71E-05,2.83E-05,-6.48E-02,5.76E-02,2.83E-02,65211
322550,-1.44E-05,2.75E-05,2.80E-05,-6.45E-02,5.64E-02,2.83E-02,65194
322570,-1.43E-05,2.59E-05,2.74E-05,-6.46E-02,5.67E-02,2.88E-02,65213
322590,-1.50E-05,2.66E-05,2.80E-05,-6.50E-02,5.76E-02,2.90E-02,65210
322610,-1.43E-05,2.63E-05,2.80E-05,-6.35E-02,5.76E-02,2.94E-02,65202
322630,-1.56E-05,2.71E-05,2.82E-05,-6.41E-02,5.71E-02,2.84E-02,65202
322650,-1.52E-05,2.65E-05,2.72E-05,-6.45E-02,5.80E-02,2.87E-02,65205
322670,-1.43E-05,2.66E-05,2.82E-05,-6.48E-02,5.65E-02,2.86E-02,65200
322690,-1.49E-05,2.66E-05,2.68E-05,-6.45E-02,5.72E-02,2.98E-02,65216
322710,-1.53E-05,2.75E-05,2.82E-05,-6.46E-02,5.76E-02,2.95E-02,65216
322731,-1.37E-05,2.80E-05,2.75E-05,-6.45E-02,5.79E-02,2.88E-02,65204
322751,-1.50E-05,2.77E-05,2.77E-05,-6.44E-02,5.64E-02,2.84E-02,65205
322771,-1.47E-05,2.74E-05,2.77E-05,-6.50E-02,5.73E-02,2.78E-02,65199
322791,-1.46E-05,2.63E-05,2.85E-05,-6.49E-02,5.76E-02,2.90E-02,65209
322811,-1.44E-05,2.74E-05,2.80E-05,-6.52E-02,5.68E-02,2.86E-02,65203
322831,-1.52E-05,2.68E-05,2.75E-05,-6.46E-02,5.84E-02,2.84E-02,65206
322851,-1.46E-05,2.68E-05,2.78E-05,-6.46E-02,5.83E-02,2.87E-02,65212
322871,-1.41E-05,2.66E-05,2.83E-05,-6.56E-02,5.69E-02,2.96E-02,65206
322891,-1.47E-05,2.74E-05,2.74E-05,-6.52E-02,5.67E-02,2.88E-02,65199
322911,-1.41E-05,2.69E-05,2.80E-05,-6.50E-02,5.77E-02,2.88E-02,65198
322932,-1.40E-05,2.72E-05,2.77E-05,-6.46E-02,5.75E-02,2.83E-02,65209
322952,-1.43E-05,2.72E-05,2.83E-05,-6.52E-02,5.81E-02,2.82E-02,65210
322972,-1.43E-05,2.71E-05,2.86E-05,-6.45E-02,5.80E-02,2.83E-02,65207
322992,-1.44E-05,2.69E-05,2.82E-05,-6.44E-02,5.77E-02,2.92E-02,65210
323012,-1.49E-05,2.69E-05,2.75E-05,-6.57E-02,5.71E-02,2.91E-02,65206
323032,-1.43E-05,2.72E-05,2.74E-05,-6.42E-02,5.65E-02,2.84E-02,65200
323052,-1.44E-05,2.74E-05,2.85E-05,-6.44E-02,5.76E-02,2.99E-02,65201
323072,-1.50E-05,2.65E-05,2.80E-05,-6.49E-02,5.79E-02,2.75E-02,65201
323092,-1.46E-05,2.71E-05,2.82E-05,-6.42E-02,5.76E-02,2.88E-02,65215
323112,-1.53E-05,2.72E-05,2.89E-05,-6.42E-02,5.76E-02,2.83E-02,65207
323133,-1.41E-05,2.74E-05,2.80E-05,-6.48E-02,5.79E-02,2.83E-02,65205
323153,-1.50E-05,2.74E-05,2.82E-05,-6.46E-02,5.71E-02,2.83E-02,65206
323173,-1.49E-05,2.74E-05,2.77E-05,-6.49E-02,5.67E-02,2.79E-02,65196
323193,-1.52E-05,2.65E-05,2.75E-05,-6.45E-02,5.83E-02,2.96E-02,65208
323213,-1.50E-05,2.80E-05,2.74E-05,-6.45E-02,5.61E-02,2.87E-02,65201
323233,-1.43E-05,2.71E-05,2.89E-05,-6.46E-02,5.69E-02,2.84E-02,65208
323253,-1.43E-05,2.71E-05,2.80E-05,-6.49E-02,5.85E-02,2.80E-02,65198
323273,-1.53E-05,2.75E-05,2.77E-05,-6.61E-02,5.71E-02,2.94E-02,65206
323293,-1.41E-05,2.74E-05,2.82E-05,-6.52E-02,5.75E-02,2.87E-02,65200
323313,-1.47E-05,2.77E-05,2.77E-05,-6.40E-02,5.83E-02,2.86E-02,65197
323333,-1.41E-05,2.69E-05,2.85E-05,-6.45E-02,5.76E-02,2.82E-02,65212
323354,-1.46E-05,2.71E-05,2.75E-05,-6.46E-02,5.67E-02,2.84E-02,65204
323374,-1.43E-05,2.68E-05,2.78E-05,-6.41E-02,5.64E-02,2.95E-02,65209
323394,-1.35E-05,2.71E-05,2.85E-05,-6.50E-02,5.72E-02,2.92E-02,65206
323414,-1.46E-05,2.66E-05,2.78E-05,-6.42E-02,5.72E-02,2.83E-02,65196
323434,-1.47E-05,2.78E-05,2.78E-05,-6.49E-02,5.69E-02,2.78E-02,65202
323454,-1.41E-05,2.69E-05,2.75E-05,-6.41E-02,5.71E-02,2.82E-02,65203
323474,-1.40E-05,2.74E-05,2.77E-05,-6.42E-02,5.83E-02,2.84E-02,65214
323494,-1.47E-05,2.68E-05,2.89E-05,-6.40E-02,5.67E-02,2.87E-02,65213
323514,-1.58E-05,2.62E-05,2.83E-05,-6.54E-02,5.71E-02,2.88E-02,65211
323534,-1.40E-05,2.74E-05,2.69E-05,-6.49E-02,5.80E-02,2.96E-02,65196
323554,-1.47E-05,2.74E-05,2.77E-05,-6.44E-02,5.69E-02,2.88E-02,65212
323575,-1.52E-05,2.69E-05,2.86E-05,-6.45E-02,5.67E-02,2.87E-02,65208
323595,-1.43E-05,2.80E-05,2.74E-05,-6.53E-02,5.84E-02,2.76E-02,65213
323615,-1.43E-05,2.71E-05,2.78E-05,-6.50E-02,5.68E-02,2.82E-02,65211
323635,-1.49E-05,2.66E-05,2.78E-05,-6.41E-02,5.73E-02,2.84E-02,65211
323655,-1.53E-05,2.72E-05,2.71E-05,-6.46E-02,5.77E-02,2.87E-02,65204
323675,-1.47E-05,2.68E-05,2.85E-05,-6.48E-02,5.71E-02,2.78E-02,65214
323695,-1.47E-05,2.69E-05,2.88E-05,-6.65E-02,5.64E-02,2.92E-02,65196
323715,-1.43E-05,2.68E-05,2.85E-05,-6.56E-02,5.79E-02,2.96E-02,65202
323735,-1.46E-05,2.77E-05,2.72E-05,-6.40E-02,5.73E-02,2.86E-02,65206
323755,-1.47E-05,2.77E-05,2.72E-05,-6.45E-02,5.72E-02,2.74E-02,65197
323776,-1.37E-05,2.71E-05,2.78E-05,-6.48E-02,5.79E-02,2.78E-02,65204
323796,-1.37E-05,2.72E-05,2.85E-05,-6.58E-02,5.87E-02,2.86E-02,65208
323816,-1.49E-05,2.74E-05,2.74E-05,-6.42E-02,5.65E-02,2.80E-02,65214
323836,-1.52E-05,2.71E-05,2.74E-05,-6.42E-02,5.68E-02,2.88E-02,65200
323856,-1.44E-05,2.66E-05,2.78E-05,-6.44E-02,5.81E-02,2.79E-02,65211
323876,-1.49E-05,2.83E-05,2.71E-05,-6.46E-02,5.81E-02,2.82E-02,65213
323896,-1.38E-05,2.72E-05,2.80E-05,-6.41E-02,5.69E-02,2.82E-02,65209
323916,-1.37E-05,2.66E-05,2.83E-05,-6.41E-02,5.65E-02,2.79E-02,65196
323936,-1.50E-05,2.72E-05,2.83E-05,-6.45E-02,5.80E-02,2.90E-02,65201
323956,-1.43E-05,2.75E-05,2.74E-05,-6.49E-02,5.91E-02,2.82E-02,65210
323977,-1.47E-05,2.74E-05,2.68E-05,-6.41E-02,5.65E-02,2.88E-02,65211
323997,-1.43E-05,2.77E-05,2.74E-05,-6.48E-02,5.72E-02,2.92E-02,65212
324017,-1.40E-05,2.68E-05,2.72E-05,-6.44E-02,5.87E-02,2.86E-02,65204
324037,-1.46E-05,2.69E-05,2.74E-05,-6.44E-02,5.77E-02,2.90E-02,65214
324057,-1.55E-05,2.77E-05,2.82E-05,-6.50E-02,5.83E-02,2.83E-02,65209
324077,-1.47E-05,2.68E-05,2.75E-05,-6.44E-02,5.73E-02,2.78E-02,65207
324097,-1.41E-05,2.74E-05,2.75E-05,-6.41E-02,5.72E-02,2.70E-02,65204
324117,-1.43E-05,2.69E-05,2.78E-05,-6.41E-02,5.76E-02,2.94E-02,65200
324137,-1.46E-05,2.71E-05,2.85E-05,-6.52E-02,5.81E-02,2.88E-02,65203
324157,-1.41E-05,2.71E-05,2.75E-05,-6.44E-02,5.76E-02,2.80E-02,65207
324177,-1.46E-05,2.66E-05,2.75E-05,-6.42E-02,5.71E-02,2.74E-02,65208
324197,-1.44E-05,2.75E-05,2.86E-05,-6.46E-02,5.75E-02,2.84E-02,65214
324218,-1.38E-05,2.74E-05,2.85E-05,-6.52E-02,5.77E-02,2.84E-02,65210
324238,-1.43E-05,2.68E-05,2.85E-05,-6.50E-02,5.71E-02,2.88E-02,65200
324258,-1.47E-05,2.77E-05,2.83E-05,-6.48E-02,5.64E-02,2.82E-02,65197
324278,-1.44E-05,2.75E-05,2.82E-05,-6.44E-02,5.79E-02,2.75E-02,65207
324298,-1.44E-05,2.72E-05,2.72E-05,-6.42E-02,5.76E-02,2.88E-02,65206
324318,-1.47E-05,2.77E-05,2.80E-05,-6.36E-02,5.75E-02,2.95E-02,65210
324338,-1.47E-05,2.74E-05,2.75E-05,-6.46E-02,5.76E-02,2.88E-02,65200
324358,-1.47E-05,2.71E-05,2.75E-05,-6.42E-02,5.84E-02,2.90E-02,65210
324378,-1.52E-05,2.72E-05,2.77E-05,-6.42E-02,5.68E-02,2.88E-02,65219
324398,-1.43E-05,2.71E-05,2.78E-05,-6.44E-02,5.85E-02,2.88E-02,65209
324419,-1.41E-05,2.68E-05,2.77E-05,-6.37E-02,5.75E-02,2.87E-02,65190
324439,-1.41E-05,2.68E-05,2.72E-05,-6.48E-02,5.75E-02,2.84E-02,65203
324459,-1.41E-05,2.74E-05,2.82E-05,-6.41E-02,5.69E-02,2.87E-02,65201
324479,-1.49E-05,2.68E-05,2.82E-05,-6.49E-02,5.83E-02,2.91E-02,65205
324499,-1.46E-05,2.75E-05,2.72E-05,-6.29E-02,5.80E-02,2.76E-02,65206
324519,-1.38E-05,2.69E-05,2.69E-05,-6.46E-02,5.65E-02,2.82E-02,65202
324539,-1.38E-05,2.75E-05,2.83E-05,-6.50E-02,5.84E-02,2.88E-02,65206
324559,-1.35E-05,2.72E-05,2.72E-05,-6.46E-02,5.76E-02,2.80E-02,65215
324579,-1.41E-05,2.74E-05,2.80E-05,-6.40E-02,5.67E-02,2.94E-02,65202
324599,-1.44E-05,2.72E-05,2.83E-05,-6.49E-02,5.71E-02,2.86E-02,65201
324619,-1.53E-05,2.63E-05,2.86E-05,-6.41E-02,5.83E-02,2.84E-02,65209
324640,-1.44E-05,2.72E-05,2.82E-05,-6.40E-02,5.79E-02,2.74E-02,65214
324660,-1.37E-05,2.75E-05,2.85E-05,-6.45E-02,5.71E-02,2.78E-02,65199
324680,-1.41E-05,2.78E-05,2.82E-05,-6.36E-02,5.76E-02,2.82E-02,65212
324700,-1.53E-05,2.75E-05,2.71E-05,-6.41E-02,5.80E-02,2.76E-02,65206
324720,-1.49E-05,2.66E-05,2.82E-05,-6.52E-02,5.76E-02,2.86E-02,65200
324740,-1.55E-05,2.71E-05,2.74E-05,-6.50E-02,5.71E-02,2.86E-02,65196
324760,-1.37E-05,2.72E-05,2.85E-05,-6.44E-02,5.89E-02,2.91E-02,65207
324780,-1.58E-05,2.66E-05,2.83E-05,-6.45E-02,5.76E-02,2.99E-02,65207
324800,-1.49E-05,2.63E-05,2.74E-05,-6.37E-02,5.65E-02,2.87E-02,65211
324820,-1.50E-05,2.60E-05,2.78E-05,-6.48E-02,5.79E-02,2.88E-02,65203
324840,-1.49E-05,2.71E-05,2.72E-05,-6.39E-02,5.83E-02,2.86E-02,65195
324861,-1.34E-05,2.72E-05,2.77E-05,-6.49E-02,5.79E-02,2.87E-02,65208
324881,-1.44E-05,2.71E-05,2.80E-05,-6.42E-02,5.77E-02,2.75E-02,65190
324901,-1.49E-05,2.77E-05,2.78E-05,-6.46E-02,5.76E-02,2.75E-02,65202
324921,-1.44E-05,2.71E-05,2.78E-05,-6.44E-02,5.73E-02,2.87E-02,65196
324941,-1.44E-05,2.71E-05,2.78E-05,-6.48E-02,5.83E-02,2.92E-02,65207
324961,-1.49E-05,2.66E-05,2.82E-05,-6.49E-02,5.87E-02,2.84E-02,65197
324981,-1.50E-05,2.66E-05,2.80E-05,-6.37E-02,5.80E-02,2.80E-02,65204
325001,-1.40E-05,2.69E-05,2.78E-05,-6.44E-02,5.75E-02,2.83E-02,65207
325021,-1.40E-05,2.82E-05,2.75E-05,-6.42E-02,5.79E-02,2.80E-02,65205
325041,-1.46E-05,2.75E-05,2.77E-05,-6.40E-02,5.64E-02,2.86E-02,65205
325062,-1.38E-05,2.63E-05,2.80E-05,-6.44E-02,5.83E-02,2.82E-02,65204
325082,-1.35E-05,2.69E-05,2.82E-05,-6.45E-02,5.80E-02,2.78E-02,65209
325102,-1.52E-05,2.69E-05,2.75E-05,-6.46E-02,5.85E-02,2.88E-02,65201
325122,-1.46E-05,2.66E-05,2.78E-05,-6.46E-02,5.73E-02,2.86E-02,65198
325142,-1.46E-05,2.75E-05,2.74E-05,-6.45E-02,5.73E-02,2.86E-02,65201
325162,-1.56E-05,2.71E-05,2.78E-05,-6.44E-02,5.76E-02,2.87E-02,65196
325182,-1.46E-05,2.66E-05,2.86E-05,-6.41E-02,5.76E-02,2.92E-02,65208
325202,-1.44E-05,2.83E-05,2.74E-05,-6.53E-02,5.68E-02,2.90E-02,65197
325222,-1.35E-05,2.71E-05,2.72E-05,-6.52E-02,5.72E-02,2.94E-02,65205
325242,-1.38E-05,2.72E-05,2.78E-05,-6.46E-02,5.77E-02,2.91E-02,65201
325263,-1.44E-05,2.74E-05,2.82E-05,-6.40E-02,5.68E-02,2.80E-02,65212
325283,-1.44E-05,2.68E-05,2.78E-05,-6.50E-02,5.69E-02,2.90E-02,65196
325303,-1.47E-05,2.74E-05,2.85E-05,-6.48E-02,5.87E-02,2.83E-02,65207
325323,-1.50E-05,2.72E-05,2.83E-05,-6.44E-02,5.81E-02,2.88E-02,65211
325343,-1.41E-05,2.71E-05,2.88E-05,-6.41E-02,5.88E-02,2.92E-02,65204
625345,-1.52E-05,2.69E-05,2.77E-05,-6.46E-02,5.76E-02,2.94E-02,65143
625360,-1.38E-05,2.74E-05,2.78E-05,-6.42E-02,5.76E-02,2.90E-02,65135
625379,-1.49E-05,2.68E-05,2.78E-05,-6.48E-02,5.81E-02,2.84E-02,65137
625399,-1.35E-05,2.78E-05,2.86E-05,-6.44E-02,5.79E-02,2.92E-02,65145
625418,-1.53E-05,2.75E-05,2.88E-05,-6.50E-02,5.76E-02,2.94E-02,65148
625437,-1.43E-05,2.72E-05,2.80E-05,-6.49E-02,5.85E-02,2.95E-02,65149
625456,-1.46E-05,2.66E-05,2.83E-05,-6.49E-02,5.72E-02,2.87E-02,65145
625475,-1.43E-05,2.77E-05,2.82E-05,-6.53E-02,5.65E-02,2.90E-02,65142
625495,-1.52E-05,2.69E-05,2.86E-05,-6.50E-02,5.72E-02,2.96E-02,65137
625515,-1.49E-05,2.69E-05,2.80E-05,-6.48E-02,5.73E-02,2.86E-02,65151
625535,-1.46E-05,2.72E-05,2.86E-05,-6.54E-02,5.80E-02,2.94E-02,65154
625555,-1.46E-05,2.71E-05,2.82E-05,-6.54E-02,5.68E-02,2.90E-02,65149
625575,-1.44E-05,2.65E-05,2.83E-05,-6.45E-02,5.75E-02,2.80E-02,65143
625596,-1.59E-05,2.69E-05,2.85E-05,-6.50E-02,5.79E-02,2.76E-02,65143
625616,-1.52E-05,2.72E-05,2.86E-05,-6.56E-02,5.77E-02,2.96E-02,65145
625636,-1.47E-05,2.75E-05,2.83E-05,-6.48E-02,5.73E-02,2.95E-02,65137
625656,-1.50E-05,2.69E-05,2.86E-05,-6.53E-02,5.73E-02,2.86E-02,65152
625676,-1.49E-05,2.68E-05,2.75E-05,-6.50E-02,5.72E-02,2.82E-02,65149
625696,-1.40E-05,2.69E-05,2.88E-05,-6.49E-02,5.69E-02,2.88E-02,65145
625716,-1.50E-05,2.69E-05,2.75E-05,-6.54E-02,5.81E-02,2.98E-02,65147
625736,-1.43E-05,2.77E-05,2.77E-05,-6.57E-02,5.83E-02,2.95E-02,65147
625756,-1.43E-05,2.74E-05,2.80E-05,-6.49E-02,5.67E-02,2.84E-02,65146
625776,-1.43E-05,2.65E-05,2.86E-05,-6.45E-02,5.60E-02,2.86E-02,65149
625797,-1.49E-05,2.62E-05,2.97E-05,-6.48E-02,5.81E-02,2.90E-02,65146
625817,-1.38E-05,2.69E-05,2.85E-05,-6.46E-02,5.84E-02,2.92E-02,65141
625837,-1.38E-05,2.71E-05,2.83E-05,-6.46E-02,5.69E-02,2.91E-02,65148
625857,-1.32E-05,2.63E-05,2.83E-05,-6.49E-02,5.75E-02,2.86E-02,65143
625877,-1.46E-05,2.71E-05,2.75E-05,-6.50E-02,5.85E-02,2.87E-02,65159
625897,-1.49E-05,2.69E-05,2.78E-05,-6.58E-02,5.67E-02,2.91E-02,65147
625917,-1.46E-05,2.69E-05,2.82E-05,-6.50E-02,5.81E-02,2.86E-02,65133
625937,-1.43E-05,2.72E-05,2.83E-05,-6.41E-02,5.79E-02,2.91E-02,65142
625957,-1.43E-05,2.74E-05,2.78E-05,-6.42E-02,5.67E-02,2.91E-02,65139
625977,-1.41E-05,2.68E-05,2.82E-05,-6.53E-02,5.73E-02,2.91E-02,65137
625998,-1.49E-05,2.75E-05,2.77E-05,-6.48E-02,5.88E-02,2.94E-02,65145
626018,-1.41E-05,2.69E-05,2.89E-05,-6.56E-02,5.73E-02,2.95E-02,65147
626038,-1.47E-05,2.60E-05,2.85E-05,-6.58E-02,5.65E-02,2.90E-02,65148
626058,-1.52E-05,2.69E-05,2.82E-05,-6.52E-02,5.76E-02,2.87E-02,65139
626078,-1.49E-05,2.77E-05,2.91E-05,-6.44E-02,5.84E-02,2.90E-02,65138
626098,-1.35E-05,2.72E-05,2.74E-05,-6.56E-02,5.72E-02,2.88E-02,65148
626118,-1.46E-05,2.65E-05,2.85E-05,-6.56E-02,5.83E-02,2.98E-02,65147
626138,-1.53E-05,2.68E-05,2.77E-05,-6.57E-02,5.88E-02,2.94E-02,65146
626159,-1.55E-05,2.75E-05,2.88E-05,-6.48E-02,5.77E-02,2.84E-02,65140
626179,-1.41E-05,2.69E-05,2.86E-05,-6.49E-02,5.73E-02,2.79E-02,65138
626199,-1.40E-05,2.69E-05,2.80E-05,-6.53E-02,5.85E-02,2.96E-02,65144
626219,-1.47E-05,2.80E-05,2.77E-05,-6.57E-02,5.84E-02,2.95E-02,65155
626239,-1.50E-05,2.74E-05,2.77E-05,-6.52E-02,5.84E-02,2.83E-02,65148
626259,-1.44E-05,2.74E-05,2.83E-05,-6.42E-02,5.79E-02,2.79E-02,65141
626279,-1.44E-05,2.63E-05,2.83E-05,-6.57E-02,5.83E-02,2.91E-02,65147
626299,-1.53E-05,2.78E-05,2.71E-05,-6.48E-02,5.75E-02,2.87E-02,65140
626319,-1.50E-05,2.68E-05,2.85E-05,-6.52E-02,5.77E-02,2.96E-02,65148
626339,-1.34E-05,2.71E-05,2.77E-05,-6.44E-02,5.72E-02,2.87E-02,65147
626360,-1.47E-05,2.65E-05,2.82E-05,-6.46E-02,5.72E-02,2.79E-02,65147
626380,-1.52E-05,2.62E-05,2.83E-05,-6.52E-02,5.72E-02,2.91E-02,65150
626400,-1.49E-05,2.71E-05,2.78E-05,-6.42E-02,5.83E-02,2.88E-02,65143
626420,-1.41E-05,2.60E-05,2.91E-05,-6.44E-02,5.75E-02,2.82E-02,65147
626440,-1.40E-05,2.66E-05,2.82E-05,-6.49E-02,5.72E-02,2.92E-02,65148
626460,-1.50E-05,2.66E-05,2.88E-05,-6.48E-02,5.67E-02,2.91E-02,65141
626480,-1.46E-05,2.72E-05,2.85E-05,-6.48E-02,5.83E-02,2.90E-02,65140
626500,-1.50E-05,2.82E-05,2.82E-05,-6.53E-02,5.77E-02,2.90E-02,65146
626520,-1.40E-05,2.71E-05,2.89E-05,-6.54E-02,5.79E-02,3.04E-02,65150
626540,-1.46E-05,2.68E-05,2.82E-05,-6.48E-02,5.85E-02,2.94E-02,65155
626561,-1.43E-05,2.77E-05,2.86E-05,-6.49E-02,5.79E-02,2.91E-02,65144
626581,-1.44E-05,2.66E-05,2.85E-05,-6.41E-02,5.81E-02,2.84E-02,65148
626601,-1.47E-05,2.72E-05,2.88E-05,-6.46E-02,5.89E-02,2.94E-02,65152
626621,-1.56E-05,2.74E-05,2.86E-05,-6.54E-02,5.80E-02,2.88E-02,65140
626641,-1.41E-05,2.62E-05,2.71E-05,-6.48E-02,5.73E-02,2.94E-02,65138
626661,-1.52E-05,2.69E-05,2.85E-05,-6.54E-02,5.76E-02,2.90E-02,65147
626681,-1.47E-05,2.68E-05,2.82E-05,-6.50E-02,5.84E-02,2.95E-02,65136
626701,-1.46E-05,2.71E-05,2.78E-05,-6.52E-02,5.81E-02,2.83E-02,65150
626721,-1.44E-05,2.74E-05,2.86E-05,-6.50E-02,5.75E-02,2.90E-02,65144
626741,-1.44E-05,2.66E-05,2.85E-05,-6.52E-02,5.75E-02,2.94E-02,65139
626762,-1.52E-05,2.83E-05,2.85E-05,-6.42E-02,5.76E-02,2.86E-02,65149
626782,-1.46E-05,2.72E-05,2.86E-05,-6.44E-02,5.75E-02,2.88E-02,65144
626802,-1.46E-05,2.74E-05,2.80E-05,-6.46E-02,5.73E-02,2.90E-02,65153
626822,-1.41E-05,2.63E-05,2.83E-05,-6.46E-02,5.85E-02,2.91E-02,65147
626842,-1.41E-05,2.71E-05,2.75E-05,-6.41E-02,5.75E-02,2.91E-02,65148
626862,-1.47E-05,2.75E-05,2.98E-05,-6.45E-02,5.75E-02,2.94E-02,65140
626882,-1.46E-05,2.68E-05,2.88E-05,-6.46E-02,5.77E-02,2.91E-02,65149
626902,-1.50E-05,2.71E-05,2.91E-05,-6.52E-02,5.79E-02,2.91E-02,65151
626922,-1.43E-05,2.78E-05,2.82E-05,-6.50E-02,5.72E-02,2.98E-02,65150
626942,-1.44E-05,2.68E-05,2.80E-05,-6.53E-02,5.76E-02,2.88E-02,65140
626963,-1.41E-05,2.68E-05,2.80E-05,-6.46E-02,5.80E-02,2.75E-02,65139
626983,-1.47E-05,2.68E-05,2.85E-05,-6.41E-02,5.76E-02,2.76E-02,65143
627003,-1.41E-05,2.65E-05,2.88E-05,-6.49E-02,5.77E-02,2.88E-02,65138
627023,-1.47E-05,2.66E-05,2.80E-05,-6.50E-02,5.80E-02,2.99E-02,65140
627043,-1.47E-05,2.69E-05,2.83E-05,-6.53E-02,5.85E-02,2.86E-02,65136
627063,-1.49E-05,2.65E-05,2.78E-05,-6.44E-02,5.83E-02,2.84E-02,65138
627083,-1.46E-05,2.72E-05,2.83E-05,-6.41E-02,5.79E-02,2.82E-02,65142
627103,-1.59E-05,2.71E-05,2.86E-05,-6.52E-02,5.84E-02,2.82E-02,65146
627123,-1.43E-05,2.77E-05,2.86E-05,-6.57E-02,5.81E-02,2.94E-02,65143
627143,-1.43E-05,2.69E-05,2.89E-05,-6.53E-02,5.79E-02,2.90E-02,65143
627164,-1.49E-05,2.71E-05,2.82E-05,-6.61E-02,5.75E-02,2.82E-02,65137
627184,-1.44E-05,2.68E-05,2.88E-05,-6.53E-02,5.79E-02,2.96E-02,65157
627204,-1.52E-05,2.72E-05,2.95E-05,-6.57E-02,5.85E-02,2.94E-02,65147
627224,-1.55E-05,2.68E-05,2.83E-05,-6.56E-02,5.72E-02,2.88E-02,65142
627244,-1.50E-05,2.74E-05,2.86E-05,-6.50E-02,5.79E-02,2.83E-02,65150
627264,-1.40E-05,2.75E-05,2.85E-05,-6.35E-02,5.71E-02,2.79E-02,65141
627284,-1.38E-05,2.75E-05,2.85E-05,-6.46E-02,5.72E-02,2.86E-02,65155
627304,-1.44E-05,2.77E-05,2.80E-05,-6.42E-02,5.80E-02,2.86E-02,65146
627324,-1.46E-05,2.69E-05,2.78E-05,-6.49E-02,5.77E-02,2.84E-02,65142
627344,-1.47E-05,2.66E-05,2.88E-05,-6.45E-02,5.87E-02,2.82E-02,65139
627365,-1.43E-05,2.72E-05,2.85E-05,-6.49E-02,5.76E-02,2.86E-02,65142
627385,-1.47E-05,2.71E-05,2.78E-05,-6.50E-02,5.79E-02,2.83E-02,65142
627405,-1.50E-05,2.80E-05,2.75E-05,-6.61E-02,5.79E-02,2.86E-02,65148
627425,-1.55E-05,2.74E-05,2.85E-05,-6.56E-02,5.81E-02,2.96E-02,65153
627445,-1.49E-05,2.69E-05,2.88E-05,-6.45E-02,5.71E-02,2.83E-02,65131
627465,-1.53E-05,2.68E-05,2.83E-05,-6.45E-02,5.81E-02,2.94E-02,65144
627485,-1.47E-05,2.77E-05,2.78E-05,-6.49E-02,5.79E-02,2.91E-02,65139
627505,-1.47E-05,2.69E-05,2.85E-05,-6.50E-02,5.88E-02,2.95E-02,65145
627525,-1.41E-05,2.77E-05,2.83E-05,-6.48E-02,5.76E-02,3.00E-02,65141
627545,-1.43E-05,2.66E-05,2.83E-05,-6.39E-02,5.87E-02,2.99E-02,65145
627566,-1.52E-05,2.72E-05,2.83E-05,-6.50E-02,5.76E-02,2.86E-02,65141
627586,-1.44E-05,2.68E-05,2.88E-05,-6.50E-02,5.72E-02,2.98E-02,65157
627606,-1.38E-05,2.63E-05,2.92E-05,-6.52E-02,5.77E-02,2.94E-02,65153
627626,-1.47E-05,2.77E-05,2.78E-05,-6.46E-02,5.73E-02,2.87E-02,65151
627646,-1.38E-05,2.82E-05,2.72E-05,-6.46E-02,5.69E-02,2.80E-02,65142
627666,-1.52E-05,2.71E-05,2.89E-05,-6.46E-02,5.73E-02,2.91E-02,65143
627686,-1.53E-05,2.66E-05,2.80E-05,-6.52E-02,5.80E-02,2.94E-02,65143
627706,-1.49E-05,2.65E-05,2.83E-05,-6.58E-02,5.75E-02,2.94E-02,65148
627726,-1.43E-05,2.68E-05,2.88E-05,-6.52E-02,5.72E-02,2.82E-02,65152
627746,-1.59E-05,2.71E-05,2.80E-05,-6.48E-02,5.68E-02,2.83E-02,65146
627767,-1.46E-05,2.74E-05,2.80E-05,-6.52E-02,5.69E-02,2.88E-02,65144
627787,-1.55E-05,2.69E-05,2.78E-05,-6.42E-02,5.79E-02,2.87E-02,65140
627807,-1.44E-05,2.82E-05,2.77E-05,-6.53E-02,5.85E-02,2.88E-02,65152
627827,-1.56E-05,2.65E-05,2.77E-05,-6.42E-02,5.79E-02,2.84E-02,65137
627847,-1.47E-05,2.72E-05,2.80E-05,-6.50E-02,5.69E-02,2.82E-02,65150
627867,-1.47E-05,2.71E-05,2.82E-05,-6.53E-02,5.75E-02,2.82E-02,65140
627887,-1.52E-05,2.74E-05,2.85E-05,-6.50E-02,5.81E-02,2.92E-02,65152
627907,-1.52E-05,2.72E-05,2.88E-05,-6.50E-02,5.79E-02,3.03E-02,65144
627927,-1.50E-05,2.77E-05,2.82E-05,-6.50E-02,5.76E-02,2.83E-02,65144
627947,-1.53E-05,2.72E-05,2.77E-05,-6.52E-02,5.80E-02,2.92E-02,65152
627968,-1.44E-05,2.74E-05,2.88E-05,-6.45E-02,5.76E-02,2.90E-02,65148
627988,-1.46E-05,2.63E-05,2.86E-05,-6.46E-02,5.81E-02,2.87E-02,65146
628008,-1.46E-05,2.68E-05,2.85E-05,-6.45E-02,5.75E-02,2.83E-02,65151
628028,-1.46E-05,2.75E-05,2.80E-05,-6.52E-02,5.72E-02,2.83E-02,65141
628048,-1.58E-05,2.71E-05,2.85E-05,-6.49E-02,5.80E-02,2.88E-02,65151
628068,-1.37E-05,2.62E-05,2.80E-05,-6.58E-02,5.83E-02,2.80E-02,65143
628088,-1.43E-05,2.71E-05,2.85E-05,-6.46E-02,5.76E-02,2.87E-02,65142
628108,-1.47E-05,2.71E-05,2.72E-05,-6.62E-02,5.81E-02,2.96E-02,65152
628128,-1.40E-05,2.69E-05,2.89E-05,-6.57E-02,5.77E-02,2.91E-02,65136
628148,-1.55E-05,2.77E-05,2.88E-05,-6.44E-02,5.76E-02,2.83E-02,65142
628169,-1.44E-05,2.66E-05,2.85E-05,-6.44E-02,5.80E-02,2.88E-02,65139
628189,-1.49E-05,2.75E-05,2.82E-05,-6.54E-02,5.75E-02,2.95E-02,65139
628209,-1.46E-05,2.68E-05,2.80E-05,-6.62E-02,5.69E-02,2.94E-02,65140
628229,-1.52E-05,2.71E-05,2.74E-05,-6.57E-02,5.75E-02,2.82E-02,65151
628249,-1.50E-05,2.66E-05,2.85E-05,-6.46E-02,5.72E-02,2.92E-02,65143
628269,-1.53E-05,2.82E-05,2.78E-05,-6.45E-02,5.76E-02,2.88E-02,65137
628289,-1.50E-05,2.62E-05,2.83E-05,-6.50E-02,5.83E-02,2.96E-02,65145
628309,-1.52E-05,2.83E-05,2.77E-05,-6.53E-02,5.69E-02,2.82E-02,65148
628329,-1.55E-05,2.68E-05,2.78E-05,-6.52E-02,5.76E-02,2.87E-02,65138
628349,-1.38E-05,2.77E-05,2.80E-05,-6.52E-02,5.69E-02,2.88E-02,65145
628370,-1.46E-05,2.69E-05,2.85E-05,-6.54E-02,5.80E-02,2.82E-02,65148
628390,-1.41E-05,2.66E-05,2.80E-05,-6.50E-02,5.84E-02,2.91E-02,65143
628410,-1.53E-05,2.72E-05,2.77E-05,-6.44E-02,5.65E-02,2.83E-02,65144
628430,-1.40E-05,2.66E-05,2.75E-05,-6.48E-02,5.75E-02,2.86E-02,65143
628450,-1.46E-05,2.78E-05,2.75E-05,-6.50E-02,5.76E-02,2.84E-02,65144
628470,-1.52E-05,2.63E-05,2.77E-05,-6.45E-02,5.80E-02,2.86E-02,65138
628490,-1.55E-05,2.68E-05,2.82E-05,-6.49E-02,5.77E-02,2.95E-02,65146
628510,-1.43E-05,2.65E-05,2.77E-05,-6.56E-02,5.75E-02,2.94E-02,65137
628530,-1.40E-05,2.72E-05,2.88E-05,-6.44E-02,5.85E-02,2.90E-02,65141
628550,-1.50E-05,2.66E-05,2.83E-05,-6.39E-02,5.80E-02,2.90E-02,65147
628570,-1.61E-05,2.69E-05,2.85E-05,-6.42E-02,5.79E-02,2.94E-02,65140
628591,-1.44E-05,2.80E-05,2.86E-05,-6.44E-02,5.80E-02,2.87E-02,65149
628611,-1.50E-05,2.74E-05,2.83E-05,-6.54E-02,5.83E-02,2.88E-02,65139
628631,-1.43E-05,2.74E-05,2.80E-05,-6.56E-02,5.76E-02,2.88E-02,65147
628651,-1.55E-05,2.75E-05,2.78E-05,-6.53E-02,5.81E-02,2.87E-02,65152
628671,-1.41E-05,2.69E-05,2.78E-05,-6.52E-02,5.73E-02,2.83E-02,65133
628691,-1.49E-05,2.71E-05,2.82E-05,-6.57E-02,5.76E-02,2.91E-02,65144
628711,-1.50E-05,2.75E-05,2.72E-05,-6.62E-02,5.71E-02,2.91E-02,65145
628731,-1.52E-05,2.68E-05,2.82E-05,-6.54E-02,5.79E-02,2.98E-02,65135
628751,-1.43E-05,2.69E-05,2.80E-05,-6.46E-02,5.65E-02,2.87E-02,65149
628771,-1.49E-05,2.71E-05,2.77E-05,-6.36E-02,5.71E-02,2.87E-02,65142
628792,-1.46E-05,2.71E-05,2.77E-05,-6.45E-02,5.81E-02,2.84E-02,65143
628812,-1.50E-05,2.72E-05,2.82E-05,-6.54E-02,5.75E-02,2.91E-02,65141
628832,-1.49E-05,2.72E-05,2.83E-05,-6.42E-02,5.75E-02,2.87E-02,65146
628852,-1.46E-05,2.72E-05,2.80E-05,-6.50E-02,5.73E-02,2.92E-02,65151
628872,-1.55E-05,2.68E-05,2.63E-05,-6.57E-02,5.77E-02,2.91E-02,65147
628892,-1.44E-05,2.74E-05,2.82E-05,-6.60E-02,5.71E-02,2.90E-02,65149
628912,-1.44E-05,2.69E-05,2.77E-05,-6.49E-02,5.81E-02,2.91E-02,65139
628932,-1.40E-05,2.71E-05,2.75E-05,-6.49E-02,5.79E-02,2.84E-02,65148
628952,-1.41E-05,2.80E-05,2.83E-05,-6.44E-02,5.73E-02,2.82E-02,65136
628972,-1.49E-05,2.72E-05,2.77E-05,-6.54E-02,5.73E-02,2.83E-02,65139
628993,-1.47E-05,2.69E-05,2.77E-05,-6.54E-02,5.79E-02,2.86E-02,65139
629013,-1.41E-05,2.82E-05,2.75E-05,-6.54E-02,5.73E-02,2.84E-02,65133
629033,-1.50E-05,2.74E-05,2.89E-05,-6.50E-02,5.80E-02,2.90E-02,65143
629053,-1.46E-05,2.69E-05,2.88E-05,-6.50E-02,5.80E-02,2.88E-02,65140
629073,-1.53E-05,2.72E-05,2.80E-05,-6.54E-02,5.79E-02,2.90E-02,65145
629093,-1.49E-05,2.75E-05,2.75E-05,-6.50E-02,5.69E-02,2.94E-02,65157
629113,-1.46E-05,2.75E-05,2.78E-05,-6.49E-02,5.73E-02,2.99E-02,65136
629133,-1.49E-05,2.68E-05,2.80E-05,-6.41E-02,5.77E-02,2.87E-02,65139
629153,-1.49E-05,2.82E-05,2.80E-05,-6.39E-02,5.77E-02,2.91E-02,65137
629173,-1.50E-05,2.77E-05,2.86E-05,-6.42E-02,5.73E-02,2.86E-02,65143
629194,-1.55E-05,2.69E-05,2.72E-05,-6.49E-02,5.76E-02,2.87E-02,65142
629214,-1.49E-05,2.77E-05,2.86E-05,-6.52E-02,5.79E-02,2.90E-02,65157
629234,-1.50E-05,2.68E-05,2.78E-05,-6.41E-02,5.71E-02,2.83E-02,65145
629254,-1.49E-05,2.78E-05,2.85E-05,-6.52E-02,5.80E-02,2.86E-02,65146
629274,-1.52E-05,2.69E-05,2.82E-05,-6.44E-02,5.73E-02,2.95E-02,65150
629294,-1.40E-05,2.68E-05,2.77E-05,-6.53E-02,5.76E-02,2.87E-02,65149
629314,-1.46E-05,2.75E-05,2.86E-05,-6.45E-02,5.76E-02,2.91E-02,65145
629334,-1.44E-05,2.66E-05,2.89E-05,-6.50E-02,5.77E-02,2.80E-02,65148
629354,-1.44E-05,2.69E-05,2.78E-05,-6.54E-02,5.83E-02,2.78E-02,65148
629374,-1.43E-05,2.75E-05,2.86E-05,-6.46E-02,5.92E-02,2.84E-02,65158
629394,-1.46E-05,2.69E-05,2.85E-05,-6.46E-02,5.91E-02,2.86E-02,65139
629415,-1.43E-05,2.66E-05,2.80E-05,-6.57E-02,5.76E-02,2.92E-02,65154
629435,-1.38E-05,2.80E-05,2.83E-05,-6.48E-02,5.75E-02,2.82E-02,65136
629455,-1.49E-05,2.74E-05,2.80E-05,-6.53E-02,5.79E-02,2.83E-02,65150
629475,-1.46E-05,2.72E-05,2.78E-05,-6.49E-02,5.77E-02,2.94E-02,65148
629495,-1.46E-05,2.71E-05,2.72E-05,-6.46E-02,5.75E-02,2.95E-02,65147
629515,-1.49E-05,2.74E-05,2.77E-05,-6.49E-02,5.84E-02,2.94E-02,65151
629535,-1.49E-05,2.68E-05,2.78E-05,-6.56E-02,5.73E-02,2.84E-02,65148
629555,-1.50E-05,2.69E-05,2.77E-05,-6.49E-02,5.84E-02,2.95E-02,65139
629575,-1.52E-05,2.65E-05,2.80E-05,-6.53E-02,5.80E-02,2.94E-02,65139
629595,-1.53E-05,2.74E-05,2.88E-05,-6.54E-02,5.83E-02,2.96E-02,65141
629615,-1.41E-05,2.71E-05,2.82E-05,-6.48E-02,5.67E-02,2.87E-02,65139
629636,-1.52E-05,2.74E-05,2.80E-05,-6.46E-02,5.76E-02,2.95E-02,65142
629656,-1.49E-05,2.74E-05,2.78E-05,-6.58E-02,5.81E-02,2.98E-02,65146
629676,-1.50E-05,2.71E-05,2.80E-05,-6.50E-02,5.77E-02,2.96E-02,65146
629696,-1.52E-05,2.71E-05,2.75E-05,-6.45E-02,5.76E-02,2.96E-02,65150
629716,-1.50E-05,2.75E-05,2.80E-05,-6.45E-02,5.84E-02,2.90E-02,65143
629736,-1.41E-05,2.69E-05,2.78E-05,-6.48E-02,5.71E-02,2.79E-02,65138
629756,-1.38E-05,2.75E-05,2.78E-05,-6.46E-02,5.87E-02,2.95E-02,65142
629776,-1.47E-05,2.68E-05,2.89E-05,-6.49E-02,5.80E-02,3.00E-02,65148
629796,-1.46E-05,2.65E-05,2.78E-05,-6.42E-02,5.77E-02,2.90E-02,65142
629816,-1.38E-05,2.62E-05,2.85E-05,-6.54E-02,5.73E-02,2.87E-02,65152
629837,-1.35E-05,2.78E-05,2.89E-05,-6.50E-02,5.72E-02,2.83E-02,65155
629857,-1.40E-05,2.77E-05,2.89E-05,-6.49E-02,5.80E-02,2.88E-02,65151
629877,-1.44E-05,2.74E-05,2.77E-05,-6.45E-02,5.81E-02,2.95E-02,65151
629897,-1.56E-05,2.71E-05,2.83E-05,-6.52E-02,5.77E-02,2.95E-02,65142
629917,-1.50E-05,2.71E-05,2.83E-05,-6.48E-02,5.79E-02,2.91E-02,65133
629937,-1.38E-05,2.71E-05,2.80E-05,-6.45E-02,5.72E-02,2.94E-02,65142
629957,-1.43E-05,2.66E-05,2.92E-05,-6.48E-02,5.75E-02,2.91E-02,65134
629977,-1.58E-05,2.68E-05,2.75E-05,-6.44E-02,5.73E-02,2.90E-02,65146
629997,-1.47E-05,2.69E-05,2.77E-05,-6.46E-02,5.77E-02,2.99E-02,65139
630017,-1.55E-05,2.78E-05,2.82E-05,-6.52E-02,5.83E-02,2.90E-02,65142
630038,-1.47E-05,2.82E-05,2.83E-05,-6.48E-02,5.83E-02,2.90E-02,65153
630058,-1.50E-05,2.69E-05,2.82E-05,-6.46E-02,5.80E-02,2.90E-02,65146
630078,-1.44E-05,2.69E-05,2.78E-05,-6.60E-02,5.83E-02,2.87E-02,65152
630098,-1.41E-05,2.63E-05,2.82E-05,-6.52E-02,5.68E-02,2.87E-02,65154
630118,-1.43E-05,2.69E-05,2.77E-05,-6.41E-02,5.72E-02,2.92E-02,65148
630138,-1.44E-05,2.69E-05,2.77E-05,-6.39E-02,5.75E-02,2.84E-02,65149
630158,-1.50E-05,2.66E-05,2.80E-05,-6.52E-02,5.75E-02,2.86E-02,65142
630178,-1.43E-05,2.71E-05,2.71E-05,-6.52E-02,5.85E-02,2.94E-02,65151
630198,-1.44E-05,2.65E-05,2.88E-05,-6.48E-02,5.80E-02,2.83E-02,65151
630218,-1.50E-05,2.74E-05,2.78E-05,-6.48E-02,5.76E-02,2.83E-02,65156
630239,-1.49E-05,2.77E-05,2.77E-05,-6.42E-02,5.73E-02,2.83E-02,65143
630259,-1.46E-05,2.78E-05,2.82E-05,-6.48E-02,5.80E-02,2.91E-02,65137
630279,-1.49E-05,2.66E-05,2.78E-05,-6.64E-02,5.81E-02,2.90E-02,65140
630299,-1.44E-05,2.69E-05,2.83E-05,-6.54E-02,5.71E-02,2.96E-02,65142
630319,-1.47E-05,2.69E-05,2.75E-05,-6.44E-02,5.73E-02,2.86E-02,65142
630339,-1.47E-05,2.72E-05,2.78E-05,-6.41E-02,5.88E-02,2.94E-02,65136
930341,-1.49E-05,2.66E-05,2.77E-05,-6.62E-02,5.73E-02,2.91E-02,65040
930352,-1.52E-05,2.74E-05,2.83E-05,-6.56E-02,5.80E-02,2.92E-02,65047
930372,-1.41E-05,2.71E-05,2.78E-05,-6.52E-02,5.73E-02,2.87E-02,65044
930392,-1.47E-05,2.72E-05,2.88E-05,-6.53E-02,5.73E-02,2.84E-02,65055
930412,-1.53E-05,2.80E-05,2.71E-05,-6.68E-02,5.76E-02,2.88E-02,65058
930432,-1.40E-05,2.80E-05,2.80E-05,-6.61E-02,5.77E-02,2.80E-02,65046
930452,-1.47E-05,2.71E-05,2.72E-05,-6.56E-02,5.69E-02,2.84E-02,65046
930472,-1.47E-05,2.74E-05,2.88E-05,-6.54E-02,5.76E-02,2.88E-02,65043
930492,-1.55E-05,2.72E-05,2.80E-05,-6.58E-02,5.85E-02,2.86E-02,65040
930512,-1.50E-05,2.65E-05,2.86E-05,-6.57E-02,5.81E-02,2.87E-02,65047
930533,-1.47E-05,2.85E-05,2.83E-05,-6.57E-02,5.67E-02,2.82E-02,65043
930553,-1.52E-05,2.83E-05,2.86E-05,-6.56E-02,5.76E-02,2.82E-02,65052
930573,-1.52E-05,2.68E-05,2.85E-05,-6.52E-02,5.83E-02,2.84E-02,65047
930593,-1.56E-05,2.78E-05,2.78E-05,-6.57E-02,5.76E-02,2.87E-02,65045
930613,-1.41E-05,2.71E-05,2.89E-05,-6.58E-02,5.79E-02,2.99E-02,65053
930633,-1.55E-05,2.77E-05,2.74E-05,-6.50E-02,5.84E-02,2.92E-02,65049
930653,-1.49E-05,2.74E-05,2.85E-05,-6.45E-02,5.77E-02,2.79E-02,65052
930673,-1.41E-05,2.71E-05,2.78E-05,-6.61E-02,5.75E-02,2.90E-02,65057
930693,-1.52E-05,2.68E-05,2.75E-05,-6.62E-02,5.81E-02,2.96E-02,65054
930713,-1.53E-05,2.74E-05,2.72E-05,-6.56E-02,5.71E-02,2.94E-02,65048
930734,-1.52E-05,2.77E-05,2.83E-05,-6.52E-02,5.69E-02,2.88E-02,65053
930754,-1.52E-05,2.72E-05,2.78E-05,-6.54E-02,5.81E-02,2.80E-02,65059
930774,-1.59E-05,2.71E-05,2.78E-05,-6.49E-02,5.81E-02,2.98E-02,65033
930794,-1.50E-05,2.77E-05,2.85E-05,-6.54E-02,5.68E-02,2.86E-02,65058
930814,-1.44E-05,2.72E-05,2.80E-05,-6.64E-02,5.81E-02,2.96E-02,65050
930834,-1.52E-05,2.75E-05,2.86E-05,-6.54E-02,5.83E-02,2.88E-02,65038
930854,-1.56E-05,2.77E-05,2.82E-05,-6.57E-02,5.77E-02,2.84E-02,65051
930874,-1.52E-05,2.66E-05,2.85E-05,-6.56E-02,5.72E-02,2.82E-02,65052
930894,-1.49E-05,2.68E-05,2.69E-05,-6.64E-02,5.85E-02,2.99E-02,65049
930914,-1.59E-05,2.75E-05,2.83E-05,-6.62E-02,5.80E-02,2.95E-02,65051
930934,-1.53E-05,2.68E-05,2.74E-05,-6.56E-02,5.67E-02,2.84E-02,65052
930955,-1.47E-05,2.78E-05,2.77E-05,-6.56E-02,5.64E-02,2.83E-02,65051
930975,-1.52E-05,2.71E-05,2.80E-05,-6.57E-02,5.89E-02,2.95E-02,65042
930995,-1.49E-05,2.77E-05,2.83E-05,-6.60E-02,5.75E-02,2.94E-02,65053
931015,-1.41E-05,2.68E-05,2.80E-05,-6.57E-02,5.76E-02,2.91E-02,65056
931035,-1.47E-05,2.63E-05,2.78E-05,-6.50E-02,5.84E-02,2.86E-02,65053
931055,-1.52E-05,2.78E-05,2.83E-05,-6.60E-02,5.72E-02,2.88E-02,65050
931075,-1.50E-05,2.74E-05,2.83E-05,-6.66E-02,5.79E-02,2.98E-02,65046
931095,-1.50E-05,2.69E-05,2.83E-05,-6.61E-02,5.85E-02,2.87E-02,65047
931115,-1.47E-05,2.68E-05,2.91E-05,-6.52E-02,5.79E-02,2.80E-02,65050
931135,-1.44E-05,2.74E-05,2.82E-05,-6.52E-02,5.73E-02,2.84E-02,65052
931156,-1.46E-05,2.71E-05,2.86E-05,-6.54E-02,5.77E-02,3.06E-02,65050
931176,-1.43E-05,2.77E-05,2.82E-05,-6.50E-02,5.84E-02,2.99E-02,65044
931196,-1.46E-05,2.71E-05,2.77E-05,-6.56E-02,5.73E-02,2.90E-02,65042
931216,-1.52E-05,2.66E-05,2.82E-05,-6.50E-02,5.76E-02,2.95E-02,65040
931236,-1.47E-05,2.65E-05,2.83E-05,-6.52E-02,5.88E-02,2.91E-02,65044
931256,-1.49E-05,2.66E-05,2.74E-05,-6.46E-02,5.83E-02,2.91E-02,65048
931276,-1.66E-05,2.75E-05,2.74E-05,-6.54E-02,5.80E-02,3.02E-02,65045
931296,-1.56E-05,2.77E-05,2.75E-05,-6.48E-02,5.79E-02,2.87E-02,65052
931316,-1.38E-05,2.75E-05,2.86E-05,-6.49E-02,5.87E-02,2.94E-02,65044
931336,-1.53E-05,2.69E-05,2.72E-05,-6.60E-02,5.71E-02,2.95E-02,65048
931357,-1.53E-05,2.68E-05,2.83E-05,-6.57E-02,5.71E-02,3.07E-02,65047
931377,-1.58E-05,2.77E-05,2.83E-05,-6.53E-02,5.71E-02,2.95E-02,65051
931397,-1.52E-05,2.66E-05,2.77E-05,-6.56E-02,5.67E-02,2.92E-02,65044
931417,-1.49E-05,2.74E-05,2.80E-05,-6.50E-02,5.71E-02,2.87E-02,65055
931437,-1.52E-05,2.78E-05,2.74E-05,-6.54E-02,5.80E-02,2.94E-02,65052
931457,-1.46E-05,2.66E-05,2.78E-05,-6.56E-02,5.79E-02,2.92E-02,65044
931477,-1.49E-05,2.68E-05,2.78E-05,-6.54E-02,5.69E-02,2.87E-02,65047
931497,-1.50E-05,2.71E-05,2.78E-05,-6.60E-02,5.83E-02,2.94E-02,65042
931517,-1.50E-05,2.68E-05,2.78E-05,-6.53E-02,5.87E-02,2.83E-02,65055
931537,-1.52E-05,2.68E-05,2.82E-05,-6.52E-02,5.77E-02,2.90E-02,65039
931558,-1.53E-05,2.71E-05,2.78E-05,-6.46E-02,5.85E-02,2.98E-02,65049
931578,-1.52E-05,2.72E-05,2.82E-05,-6.58E-02,5.84E-02,2.92E-02,65053
931598,-1.49E-05,2.63E-05,2.82E-05,-6.52E-02,5.79E-02,2.87E-02,65048
931618,-1.50E-05,2.72E-05,2.85E-05,-6.52E-02,5.65E-02,2.87E-02,65053
931638,-1.49E-05,2.62E-05,2.88E-05,-6.45E-02,5.80E-02,2.86E-02,65050
931658,-1.46E-05,2.68E-05,2.78E-05,-6.58E-02,5.83E-02,2.90E-02,65045
931678,-1.49E-05,2.72E-05,2.78E-05,-6.58E-02,5.72E-02,2.94E-02,65045
931698,-1.49E-05,2.69E-05,2.80E-05,-6.54E-02,5.64E-02,2.92E-02,65051
931718,-1.50E-05,2.75E-05,2.80E-05,-6.58E-02,5.83E-02,2.84E-02,65053
931738,-1.47E-05,2.75E-05,2.83E-05,-6.64E-02,5.81E-02,2.82E-02,65052
931758,-1.52E-05,2.74E-05,2.72E-05,-6.52E-02,5.77E-02,2.96E-02,65049
931778,-1.47E-05,2.66E-05,2.72E-05,-6.68E-02,5.77E-02,2.98E-02,65040
931799,-1.52E-05,2.69E-05,2.75E-05,-6.53E-02,5.75E-02,2.91E-02,65057
931819,-1.44E-05,2.72E-05,2.80E-05,-6.48E-02,5.72E-02,2.90E-02,65042
931839,-1.41E-05,2.63E-05,2.83E-05,-6.48E-02,5.85E-02,2.91E-02,65054
931859,-1.52E-05,2.77E-05,2.83E-05,-6.52E-02,5.79E-02,2.91E-02,65046
931879,-1.52E-05,2.68E-05,2.80E-05,-6.44E-02,5.77E-02,2.78E-02,65044
931899,-1.52E-05,2.71E-05,2.72E-05,-6.53E-02,5.84E-02,2.86E-02,65054
931919,-1.56E-05,2.69E-05,2.85E-05,-6.50E-02,5.84E-02,2.98E-02,65047
931939,-1.55E-05,2.65E-05,2.82E-05,-6.61E-02,5.77E-02,2.91E-02,65048
931959,-1.50E-05,2.71E-05,2.77E-05,-6.52E-02,5.75E-02,2.76E-02,65034
931979,-1.56E-05,2.71E-05,2.78E-05,-6.50E-02,5.88E-02,2.88E-02,65046
932000,-1.44E-05,2.69E-05,2.89E-05,-6.57E-02,5.89E-02,2.95E-02,65044
932020,-1.55E-05,2.80E-05,2.72E-05,-6.60E-02,5.85E-02,3.07E-02,65036
932040,-1.37E-05,2.68E-05,2.80E-05,-6.62E-02,5.80E-02,3.00E-02,65054
932060,-1.52E-05,2.65E-05,2.82E-05,-6.54E-02,5.81E-02,2.92E-02,65048
932080,-1.52E-05,2.72E-05,2.71E-05,-6.53E-02,5.68E-02,2.86E-02,65050
932100,-1.59E-05,2.72E-05,2.80E-05,-6.46E-02,5.65E-02,2.87E-02,65056
932120,-1.61E-05,2.78E-05,2.75E-05,-6.57E-02,5.87E-02,2.88E-02,65051
932140,-1.63E-05,2.77E-05,2.80E-05,-6.48E-02,5.80E-02,2.87E-02,65045
932160,-1.44E-05,2.75E-05,2.80E-05,-6.57E-02,5.81E-02,2.88E-02,65039
932181,-1.52E-05,2.71E-05,2.71E-05,-6.54E-02,5.79E-02,2.92E-02,65056
932201,-1.47E-05,2.77E-05,2.91E-05,-6.49E-02,5.81E-02,2.82E-02,65046
932221,-1.50E-05,2.69E-05,2.78E-05,-6.61E-02,5.68E-02,2.83E-02,65057
932241,-1.50E-05,2.75E-05,2.71E-05,-6.61E-02,5.77E-02,2.87E-02,65044
932261,-1.52E-05,2.71E-05,2.85E-05,-6.52E-02,5.69E-02,2.75E-02,65038
932281,-1.47E-05,2.62E-05,2.85E-05,-6.56E-02,5.73E-02,2.90E-02,65048
932301,-1.56E-05,2.68E-05,2.83E-05,-6.58E-02,5.88E-02,3.06E-02,65050
932321,-1.52E-05,2.69E-05,2.88E-05,-6.52E-02,5.83E-02,2.86E-02,65044
932341,-1.49E-05,2.69E-05,2.89E-05,-6.50E-02,5.77E-02,2.83E-02,65041
932361,-1.55E-05,2.68E-05,2.85E-05,-6.49E-02,5.80E-02,2.83E-02,65045
932382,-1.47E-05,2.72E-05,2.77E-05,-6.54E-02,5.97E-02,2.99E-02,65050
932402,-1.40E-05,2.68E-05,2.85E-05,-6.60E-02,5.83E-02,2.83E-02,65053
932422,-1.46E-05,2.71E-05,2.78E-05,-6.52E-02,5.63E-02,2.86E-02,65055
932442,-1.61E-05,2.72E-05,2.80E-05,-6.41E-02,5.75E-02,2.84E-02,65049
932462,-1.44E-05,2.72E-05,2.75E-05,-6.46E-02,5.83E-02,2.96E-02,65053
932482,-1.44E-05,2.68E-05,2.77E-05,-6.62E-02,5.81E-02,2.92E-02,65048
932502,-1.53E-05,2.66E-05,2.75E-05,-6.60E-02,5.72E-02,2.94E-02,65044
932522,-1.49E-05,2.68E-05,2.74E-05,-6.49E-02,5.72E-02,2.83E-02,65054
932542,-1.52E-05,2.72E-05,2.77E-05,-6.42E-02,5.73E-02,2.87E-02,65039
932562,-1.46E-05,2.75E-05,2.75E-05,-6.62E-02,5.77E-02,2.98E-02,65049
932582,-1.55E-05,2.75E-05,2.75E-05,-6.65E-02,5.77E-02,2.98E-02,65040
932603,-1.49E-05,2.66E-05,2.74E-05,-6.44E-02,5.84E-02,2.79E-02,65047
932623,-1.46E-05,2.75E-05,2.71E-05,-6.39E-02,5.84E-02,2.86E-02,65062
932643,-1.46E-05,2.72E-05,2.75E-05,-6.54E-02,5.85E-02,2.86E-02,65043
932663,-1.55E-05,2.72E-05,2.85E-05,-6.61E-02,5.83E-02,2.91E-02,65054
932683,-1.49E-05,2.71E-05,2.88E-05,-6.44E-02,5.76E-02,2.82E-02,65049
932703,-1.46E-05,2.68E-05,2.85E-05,-6.57E-02,5.79E-02,2.82E-02,65052
932723,-1.38E-05,2.68E-05,2.72E-05,-6.53E-02,5.77E-02,2.95E-02,65040
932743,-1.56E-05,2.71E-05,2.75E-05,-6.56E-02,5.77E-02,2.96E-02,65050
932763,-1.47E-05,2.68E-05,2.89E-05,-6.46E-02,5.77E-02,2.84E-02,65037
932783,-1.53E-05,2.62E-05,2.86E-05,-6.42E-02,5.76E-02,2.74E-02,65050
932804,-1.47E-05,2.78E-05,2.71E-05,-6.53E-02,5.83E-02,3.00E-02,65052
932824,-1.52E-05,2.63E-05,2.78E-05,-6.58E-02,5.71E-02,3.00E-02,65056
932844,-1.47E-05,2.78E-05,2.78E-05,-6.56E-02,5.71E-02,2.92E-02,65051
932864,-1.49E-05,2.71E-05,2.78E-05,-6.60E-02,5.76E-02,2.86E-02,65048
932884,-1.37E-05,2.75E-05,2.85E-05,-6.52E-02,5.85E-02,2.87E-02,65043
932904,-1.50E-05,2.69E-05,2.88E-05,-6.65E-02,5.79E-02,2.98E-02,65050
932924,-1.53E-05,2.69E-05,2.78E-05,-6.57E-02,5.73E-02,3.00E-02,65052
932944,-1.50E-05,2.63E-05,2.95E-05,-6.48E-02,5.67E-02,2.84E-02,65052
932964,-1.43E-05,2.72E-05,2.80E-05,-6.53E-02,5.85E-02,2.80E-02,65050
932984,-1.49E-05,2.75E-05,2.77E-05,-6.54E-02,5.84E-02,2.90E-02,65045
933004,-1.47E-05,2.74E-05,2.78E-05,-6.60E-02,5.83E-02,2.99E-02,65046
933025,-1.50E-05,2.74E-05,2.85E-05,-6.65E-02,5.80E-02,2.92E-02,65048
933045,-1.46E-05,2.80E-05,2.83E-05,-6.58E-02,5.85E-02,2.90E-02,65054
933065,-1.52E-05,2.74E-05,2.85E-05,-6.53E-02,5.72E-02,2.88E-02,65051
933085,-1.56E-05,2.68E-05,2.83E-05,-6.56E-02,5.73E-02,2.91E-02,65050
933105,-1.46E-05,2.72E-05,2.88E-05,-6.52E-02,5.72E-02,2.91E-02,65056
933125,-1.43E-05,2.74E-05,2.82E-05,-6.53E-02,5.76E-02,2.86E-02,65053
933145,-1.47E-05,2.69E-05,2.86E-05,-6.58E-02,5.81E-02,2.96E-02,65058
933165,-1.53E-05,2.74E-05,2.83E-05,-6.62E-02,5.80E-02,2.92E-02,65051
933185,-1.44E-05,2.74E-05,2.82E-05,-6.48E-02,5.83E-02,2.86E-02,65046
933205,-1.47E-05,2.63E-05,2.80E-05,-6.57E-02,5.83E-02,2.84E-02,65052
933226,-1.47E-05,2.71E-05,2.85E-05,-6.62E-02,5.75E-02,2.90E-02,65060
933246,-1.50E-05,2.74E-05,2.82E-05,-6.56E-02,5.81E-02,2.88E-02,65050
933266,-1.50E-05,2.82E-05,2.80E-05,-6.60E-02,5.77E-02,2.92E-02,65048
933286,-1.49E-05,2.77E-05,2.85E-05,-6.56E-02,5.84E-02,2.95E-02,65048
933306,-1.47E-05,2.71E-05,2.92E-05,-6.57E-02,5.76E-02,2.88E-02,65045
933326,-1.50E-05,2.77E-05,2.78E-05,-6.49E-02,5.77E-02,2.88E-02,65056
933346,-1.46E-05,2.72E-05,2.77E-05,-6.54E-02,5.76E-02,2.84E-02,65051
933366,-1.50E-05,2.68E-05,2.78E-05,-6.58E-02,5.80E-02,2.91E-02,65055
933386,-1.50E-05,2.69E-05,2.85E-05,-6.49E-02,5.80E-02,2.91E-02,65047
933406,-1.53E-05,2.71E-05,2.80E-05,-6.52E-02,5.77E-02,2.91E-02,65053
933427,-1.43E-05,2.69E-05,2.88E-05,-6.60E-02,5.79E-02,2.94E-02,65047
933447,-1.43E-05,2.77E-05,2.80E-05,-6.56E-02,5.69E-02,2.88E-02,65061
933467,-1.37E-05,2.68E-05,2.80E-05,-6.53E-02,5.63E-02,2.78E-02,65055
933487,-1.49E-05,2.71E-05,2.82E-05,-6.49E-02,5.63E-02,2.90E-02,65046
933507,-1.52E-05,2.78E-05,2.66E-05,-6.44E-02,5.81E-02,2.94E-02,65049
933527,-1.47E-05,2.74E-05,2.78E-05,-6.60E-02,5.79E-02,2.80E-02,65054
933547,-1.50E-05,2.65E-05,2.77E-05,-6.56E-02,5.81E-02,2.95E-02,65052
933567,-1.43E-05,2.66E-05,2.86E-05,-6.60E-02,5.72E-02,2.96E-02,65052
933587,-1.50E-05,2.65E-05,2.86E-05,-6.53E-02,5.77E-02,2.92E-02,65056
933607,-1.50E-05,2.71E-05,2.80E-05,-6.57E-02,5.77E-02,2.86E-02,65051
933628,-1.50E-05,2.77E-05,2.78E-05,-6.50E-02,5.83E-02,2.95E-02,65046
933648,-1.52E-05,2.71E-05,2.69E-05,-6.53E-02,5.83E-02,2.90E-02,65051
933668,-1.55E-05,2.74E-05,2.80E-05,-6.48E-02,5.60E-02,2.84E-02,65041
933688,-1.41E-05,2.57E-05,2.80E-05,-6.54E-02,5.76E-02,2.87E-02,65056
933708,-1.56E-05,2.78E-05,2.75E-05,-6.62E-02,5.83E-02,2.90E-02,65047
933728,-1.50E-05,2.77E-05,2.80E-05,-6.52E-02,5.71E-02,2.87E-02,65046
933748,-1.46E-05,2.71E-05,2.86E-05,-6.49E-02,5.64E-02,2.86E-02,65055
933768,-1.58E-05,2.69E-05,2.75E-05,-6.54E-02,5.80E-02,2.92E-02,65045
933788,-1.43E-05,2.71E-05,2.72E-05,-6.53E-02,5.85E-02,2.94E-02,65049
933809,-1.50E-05,2.74E-05,2.85E-05,-6.62E-02,5.80E-02,2.94E-02,65052
933829,-1.49E-05,2.62E-05,2.75E-05,-6.64E-02,5.88E-02,2.99E-02,65054
933849,-1.43E-05,2.62E-05,2.78E-05,-6.54E-02,5.73E-02,2.82E-02,65054
933869,-1.49E-05,2.65E-05,2.77E-05,-6.44E-02,5.79E-02,2.82E-02,65040
933889,-1.46E-05,2.72E-05,2.75E-05,-6.61E-02,5.77E-02,2.96E-02,65048
933909,-1.44E-05,2.62E-05,2.78E-05,-6.62E-02,5.79E-02,2.92E-02,65053
933929,-1.53E-05,2.75E-05,2.82E-05,-6.54E-02,5.77E-02,2.87E-02,65057
933949,-1.44E-05,2.69E-05,2.80E-05,-6.57E-02,5.88E-02,2.91E-02,65057
933969,-1.53E-05,2.65E-05,2.82E-05,-6.72E-02,5.75E-02,2.94E-02,65056
933990,-1.52E-05,2.63E-05,2.74E-05,-6.64E-02,5.64E-02,2.91E-02,65042
934010,-1.46E-05,2.75E-05,2.72E-05,-6.54E-02,5.71E-02,2.90E-02,65055
934030,-1.41E-05,2.83E-05,2.71E-05,-6.46E-02,5.77E-02,2.94E-02,65070
934050,-1.53E-05,2.74E-05,2.75E-05,-6.53E-02,5.69E-02,2.98E-02,65047
934070,-1.46E-05,2.72E-05,2.72E-05,-6.68E-02,5.73E-02,3.00E-02,65052
934090,-1.47E-05,2.72E-05,2.80E-05,-6.60E-02,5.79E-02,2.95E-02,65051
934110,-1.49E-05,2.71E-05,2.74E-05,-6.60E-02,5.79E-02,2.92E-02,65049
934130,-1.49E-05,2.66E-05,2.78E-05,-6.56E-02,5.71E-02,2.86E-02,65059
934150,-1.43E-05,2.66E-05,2.75E-05,-6.54E-02,5.84E-02,2.98E-02,65051
934170,-1.50E-05,2.72E-05,2.71E-05,-6.54E-02,5.83E-02,2.94E-02,65043
934191,-1.59E-05,2.85E-05,2.78E-05,-6.56E-02,5.85E-02,2.90E-02,65047
934211,-1.58E-05,2.69E-05,2.77E-05,-6.54E-02,5.73E-02,2.94E-02,65043
934231,-1.58E-05,2.71E-05,2.85E-05,-6.66E-02,5.85E-02,2.92E-02,65053
934251,-1.61E-05,2.66E-05,2.78E-05,-6.56E-02,5.87E-02,2.96E-02,65040
934271,-1.49E-05,2.71E-05,2.83E-05,-6.56E-02,5.68E-02,2.88E-02,65041
934291,-1.52E-05,2.66E-05,2.83E-05,-6.54E-02,5.76E-02,2.95E-02,65045
934311,-1.52E-05,2.71E-05,2.75E-05,-6.52E-02,5.72E-02,2.84E-02,65049
934331,-1.53E-05,2.72E-05,2.78E-05,-6.66E-02,5.79E-02,2.87E-02,65046
934351,-1.46E-05,2.72E-05,2.83E-05,-6.49E-02,5.84E-02,2.94E-02,65045
934371,-1.50E-05,2.72E-05,2.78E-05,-6.42E-02,5.75E-02,2.95E-02,65042
934392,-1.50E-05,2.75E-05,2.75E-05,-6.49E-02,5.73E-02,3.00E-02,65044
934412,-1.47E-05,2.78E-05,2.85E-05,-6.57E-02,5.69E-02,2.92E-02,65052
934432,-1.44E-05,2.74E-05,2.80E-05,-6.53E-02,5.76E-02,2.84E-02,65050
934452,-1.52E-05,2.69E-05,2.80E-05,-6.53E-02,5.80E-02,2.94E-02,65041
934472,-1.38E-05,2.80E-05,2.85E-05,-6.62E-02,5.79E-02,2.92E-02,65057
934492,-1.50E-05,2.80E-05,2.80E-05,-6.53E-02,5.76E-02,2.90E-02,65045
934512,-1.47E-05,2.62E-05,2.80E-05,-6.46E-02,5.72E-02,2.87E-02,65046
934532,-1.41E-05,2.78E-05,2.80E-05,-6.44E-02,5.81E-02,2.87E-02,65046
934552,-1.56E-05,2.72E-05,2.82E-05,-6.52E-02,5.88E-02,2.92E-02,65050
934572,-1.46E-05,2.74E-05,2.71E-05,-6.52E-02,5.88E-02,3.00E-02,65060
934593,-1.56E-05,2.75E-05,2.77E-05,-6.57E-02,5.76E-02,2.84E-02,65047
934613,-1.46E-05,2.72E-05,2.80E-05,-6.49E-02,5.72E-02,2.84E-02,65042
934633,-1.47E-05,2.75E-05,2.89E-05,-6.61E-02,5.80E-02,2.94E-02,65047
934653,-1.58E-05,2.77E-05,2.80E-05,-6.60E-02,5.85E-02,2.91E-02,65038
934673,-1.47E-05,2.74E-05,2.78E-05,-6.64E-02,5.75E-02,2.86E-02,65042
934693,-1.49E-05,2.72E-05,2.75E-05,-6.41E-02,5.81E-02,2.87E-02,65040
934713,-1.52E-05,2.75E-05,2.75E-05,-6.44E-02,5.80E-02,2.88E-02,65053
934733,-1.50E-05,2.78E-05,2.69E-05,-6.50E-02,5.83E-02,2.94E-02,65046
934753,-1.52E-05,2.72E-05,2.80E-05,-6.66E-02,5.79E-02,2.86E-02,65051
934773,-1.50E-05,2.71E-05,2.78E-05,-6.54E-02,5.80E-02,2.91E-02,65056
934793,-1.44E-05,2.68E-05,2.83E-05,-6.52E-02,5.83E-02,2.91E-02,65047
934814,-1.43E-05,2.77E-05,2.72E-05,-6.58E-02,5.79E-02,2.92E-02,65041
934834,-1.43E-05,2.60E-05,2.77E-05,-6.52E-02,5.80E-02,3.00E-02,65053
934854,-1.47E-05,2.62E-05,2.78E-05,-6.53E-02,5.91E-02,2.79E-02,65048
934874,-1.40E-05,2.65E-05,2.78E-05,-6.53E-02,5.88E-02,2.94E-02,65054
934894,-1.44E-05,2.69E-05,2.82E-05,-6.62E-02,5.77E-02,2.94E-02,65057
934914,-1.52E-05,2.82E-05,2.77E-05,-6.57E-02,5.76E-02,2.87E-02,65044
934934,-1.53E-05,2.75E-05,2.82E-05,-6.49E-02,5.72E-02,2.88E-02,65047
934954,-1.49E-05,2.74E-05,2.83E-05,-6.50E-02,5.68E-02,2.88E-02,65057
934974,-1.49E-05,2.77E-05,2.82E-05,-6.52E-02,5.76E-02,2.80E-02,65050
934994,-1.40E-05,2.63E-05,2.77E-05,-6.60E-02,5.76E-02,2.84E-02,65044
935015,-1.49E-05,2.71E-05,2.88E-05,-6.52E-02,5.77E-02,2.91E-02,65040
935035,-1.52E-05,2.74E-05,2.88E-05,-6.50E-02,5.76E-02,2.94E-02,65044
935055,-1.49E-05,2.65E-05,2.80E-05,-6.52E-02,5.75E-02,2.92E-02,65046
935075,-1.47E-05,2.60E-05,2.92E-05,-6.50E-02,5.83E-02,2.90E-02,65049
935095,-1.49E-05,2.74E-05,2.94E-05,-6.49E-02,5.73E-02,2.87E-02,65049
935115,-1.55E-05,2.69E-05,2.86E-05,-6.46E-02,5.80E-02,2.80E-02,65049
935135,-1.50E-05,2.75E-05,2.80E-05,-6.53E-02,5.77E-02,2.87E-02,65044
935155,-1.50E-05,2.71E-05,2.80E-05,-6.60E-02,5.79E-02,2.87E-02,65056
935175,-1.49E-05,2.74E-05,2.80E-05,-6.49E-02,5.72E-02,2.86E-02,65052
935195,-1.55E-05,2.65E-05,2.80E-05,-6.56E-02,5.87E-02,2.94E-02,65052
935216,-1.50E-05,2.75E-05,2.82E-05,-6.54E-02,5.76E-02,2.92E-02,65045
935236,-1.53E-05,2.77E-05,2.80E-05,-6.46E-02,5.75E-02,2.88E-02,65051
935256,-1.55E-05,2.74E-05,2.85E-05,-6.49E-02,5.81E-02,2.83E-02,65058
935276,-1.44E-05,2.75E-05,2.72E-05,-6.53E-02,5.85E-02,2.92E-02,65041
935296,-1.44E-05,2.71E-05,2.80E-05,-6.56E-02,5.68E-02,2.84E-02,65060
935316,-1.53E-05,2.68E-05,2.91E-05,-6.64E-02,5.71E-02,2.79E-02,65043
935336,-1.52E-05,2.82E-05,2.75E-05,-6.46E-02,5.79E-02,2.83E-02,65039
1235338,-1.47E-05,2.62E-05,2.83E-05,-6.65E-02,5.83E-02,2.95E-02,64978
1235355,-1.53E-05,2.71E-05,2.78E-05,-6.53E-02,5.87E-02,2.94E-02,64971
1235375,-1.53E-05,2.69E-05,2.71E-05,-6.56E-02,5.83E-02,2.83E-02,64963
1235395,-1.50E-05,2.74E-05,2.83E-05,-6.58E-02,5.85E-02,2.83E-02,64973
1235415,-1.43E-05,2.63E-05,2.80E-05,-6.56E-02,5.76E-02,2.83E-02,64964
1235435,-1.55E-05,2.78E-05,2.83E-05,-6.56E-02,5.75E-02,2.99E-02,64967
1235455,-1.46E-05,2.65E-05,2.78E-05,-6.64E-02,5.76E-02,2.95E-02,64968
1235476,-1.46E-05,2.69E-05,2.83E-05,-6.50E-02,5.85E-02,2.96E-02,64968
1235496,-1.50E-05,2.72E-05,2.74E-05,-6.54E-02,5.79E-02,2.87E-02,64976
1235516,-1.52E-05,2.75E-05,2.75E-05,-6.58E-02,5.69E-02,2.90E-02,64969
1235536,-1.49E-05,2.68E-05,2.75E-05,-6.54E-02,5.84E-02,2.98E-02,64968
1235556,-1.43E-05,2.68E-05,2.83E-05,-6.58E-02,5.81E-02,2.94E-02,64965
1235576,-1.47E-05,2.68E-05,2.82E-05,-6.54E-02,5.80E-02,2.86E-02,64980
1235596,-1.49E-05,2.69E-05,2.78E-05,-6.57E-02,5.79E-02,2.90E-02,64973
1235616,-1.49E-05,2.69E-05,2.78E-05,-6.58E-02,5.79E-02,2.86E-02,64976
1235636,-1.50E-05,2.71E-05,2.74E-05,-6.64E-02,5.76E-02,2.87E-02,64962
1235656,-1.43E-05,2.77E-05,2.85E-05,-6.64E-02,5.87E-02,2.91E-02,64957
1235676,-1.50E-05,2.69E-05,2.62E-05,-6.57E-02,5.76E-02,2.84E-02,64976
1235696,-1.40E-05,2.65E-05,2.75E-05,-6.52E-02,5.81E-02,2.91E-02,64962
1235717,-1.50E-05,2.74E-05,2.82E-05,-6.65E-02,5.72E-02,2.84E-02,64958
1235737,-1.50E-05,2.69E-05,2.69E-05,-6.57E-02,5.81E-02,2.91E-02,64971
1235757,-1.59E-05,2.68E-05,2.74E-05,-6.62E-02,5.80E-02,2.92E-02,64973
1235777,-1.56E-05,2.69E-05,2.78E-05,-6.64E-02,5.75E-02,2.94E-02,64974
1235797,-1.41E-05,2.71E-05,2.82E-05,-6.64E-02,5.73E-02,2.96E-02,64971
1235817,-1.47E-05,2.78E-05,2.72E-05,-6.65E-02,5.79E-02,2.99E-02,64960
1235837,-1.56E-05,2.74E-05,2.74E-05,-6.49E-02,5.76E-02,2.94E-02,64972
1235857,-1.49E-05,2.65E-05,2.91E-05,-6.54E-02,5.81E-02,2.88E-02,64966
1235877,-1.59E-05,2.68E-05,2.77E-05,-6.60E-02,5.79E-02,2.90E-02,64970
1235897,-1.44E-05,2.71E-05,2.88E-05,-6.54E-02,5.73E-02,2.87E-02,64959
1235918,-1.59E-05,2.74E-05,2.75E-05,-6.58E-02,5.72E-02,2.90E-02,64964
1235938,-1.49E-05,2.68E-05,2.83E-05,-6.60E-02,5.81E-02,2.84E-02,64963
1235958,-1.47E-05,2.66E-05,2.78E-05,-6.52E-02,5.81E-02,2.90E-02,64972
1235978,-1.47E-05,2.74E-05,2.80E-05,-6.61E-02,5.75E-02,2.91E-02,64969
1235998,-1.53E-05,2.68E-05,2.89E-05,-6.58E-02,5.76E-02,2.95E-02,64978
1236018,-1.59E-05,2.78E-05,2.75E-05,-6.61E-02,5.79E-02,2.84E-02,64966
1236038,-1.55E-05,2.74E-05,2.88E-05,-6.49E-02,5.87E-02,2.90E-02,64969
1236058,-1.53E-05,2.82E-05,2.83E-05,-6.61E-02,5.84E-02,2.90E-02,64965
1236078,-1.53E-05,2.72E-05,2.75E-05,-6.61E-02,5.77E-02,2.92E-02,64969
1236098,-1.38E-05,2.69E-05,2.82E-05,-6.54E-02,5.81E-02,2.88E-02,64969
1236118,-1.43E-05,2.71E-05,2.85E-05,-6.52E-02,5.80E-02,2.98E-02,64974
1236138,-1.49E-05,2.72E-05,2.85E-05,-6.56E-02,5.80E-02,2.87E-02,64967
1236159,-1.53E-05,2.71E-05,2.83E-05,-6.65E-02,5.75E-02,2.86E-02,64969
1236179,-1.58E-05,2.68E-05,2.83E-05,-6.58E-02,5.73E-02,2.88E-02,64970
1236199,-1.53E-05,2.74E-05,2.86E-05,-6.58E-02,5.72E-02,2.86E-02,64971
1236219,-1.52E-05,2.74E-05,2.80E-05,-6.60E-02,5.76E-02,2.90E-02,64968
1236239,-1.53E-05,2.68E-05,2.82E-05,-6.54E-02,5.83E-02,2.86E-02,64970
1236259,-1.49E-05,2.65E-05,2.86E-05,-6.56E-02,5.73E-02,2.91E-02,64965
1236279,-1.47E-05,2.77E-05,2.88E-05,-6.64E-02,5.80E-02,2.78E-02,64970
1236299,-1.47E-05,2.62E-05,2.82E-05,-6.57E-02,5.85E-02,2.91E-02,64966
1236319,-1.55E-05,2.72E-05,2.78E-05,-6.64E-02,5.83E-02,2.94E-02,64965
1236339,-1.50E-05,2.71E-05,2.85E-05,-6.62E-02,5.88E-02,2.95E-02,64965
1236360,-1.53E-05,2.75E-05,2.77E-05,-6.64E-02,5.77E-02,2.91E-02,64969
1236380,-1.52E-05,2.59E-05,2.82E-05,-6.52E-02,5.80E-02,2.96E-02,64973
1236400,-1.58E-05,2.69E-05,2.78E-05,-6.54E-02,5.77E-02,2.90E-02,64970
1236420,-1.61E-05,2.62E-05,2.86E-05,-6.64E-02,5.85E-02,2.98E-02,64961
1236440,-1.49E-05,2.71E-05,2.72E-05,-6.68E-02,5.91E-02,2.91E-02,64964
1236460,-1.56E-05,2.72E-05,2.72E-05,-6.54E-02,5.84E-02,2.90E-02,64961
1236480,-1.53E-05,2.69E-05,2.82E-05,-6.57E-02,5.84E-02,2.98E-02,64974
1236500,-1.55E-05,2.71E-05,2.69E-05,-6.52E-02,5.80E-02,2.96E-02,64979
1236520,-1.53E-05,2.75E-05,2.83E-05,-6.57E-02,5.76E-02,2.90E-02,64982
1236540,-1.46E-05,2.77E-05,2.83E-05,-6.57E-02,5.92E-02,2.98E-02,64978
1236560,-1.53E-05,2.74E-05,2.80E-05,-6.54E-02,5.77E-02,2.79E-02,64960
1236580,-1.44E-05,2.71E-05,2.80E-05,-6.58E-02,5.76E-02,2.84E-02,64969
1236601,-1.50E-05,2.71E-05,2.80E-05,-6.54E-02,5.83E-02,2.95E-02,64969
1236621,-1.53E-05,2.78E-05,2.89E-05,-6.61E-02,5.84E-02,2.90E-02,64967
1236641,-1.52E-05,2.71E-05,2.83E-05,-6.57E-02,5.83E-02,2.91E-02,64982
1236661,-1.49E-05,2.71E-05,2.83E-05,-6.57E-02,5.77E-02,2.87E-02,64981
1236681,-1.55E-05,2.78E-05,2.85E-05,-6.56E-02,5.76E-02,2.79E-02,64970
1236701,-1.53E-05,2.74E-05,2.80E-05,-6.62E-02,5.80E-02,2.80E-02,64984
1236721,-1.49E-05,2.75E-05,2.82E-05,-6.65E-02,5.77E-02,2.90E-02,64967
1236741,-1.64E-05,2.69E-05,2.82E-05,-6.64E-02,5.73E-02,2.88E-02,64970
1236761,-1.56E-05,2.68E-05,2.83E-05,-6.64E-02,5.85E-02,2.91E-02,64973
1236781,-1.46E-05,2.72E-05,2.83E-05,-6.56E-02,5.76E-02,2.86E-02,64969
1236802,-1.55E-05,2.71E-05,2.91E-05,-6.57E-02,5.77E-02,2.98E-02,64977
1236822,-1.55E-05,2.72E-05,2.77E-05,-6.54E-02,5.88E-02,3.00E-02,64970
1236842,-1.58E-05,2.66E-05,2.89E-05,-6.52E-02,5.85E-02,2.90E-02,64965
1236862,-1.56E-05,2.71E-05,2.85E-05,-6.53E-02,5.89E-02,2.95E-02,64969
1236882,-1.43E-05,2.71E-05,2.86E-05,-6.58E-02,5.80E-02,2.96E-02,64970
1236902,-1.58E-05,2.80E-05,2.77E-05,-6.54E-02,5.84E-02,2.83E-02,64966
1236922,-1.55E-05,2.77E-05,2.86E-05,-6.60E-02,5.83E-02,2.80E-02,64967
1236942,-1.56E-05,2.75E-05,2.82E-05,-6.50E-02,5.83E-02,2.84E-02,64976
1236962,-1.55E-05,2.69E-05,2.74E-05,-6.56E-02,5.80E-02,2.88E-02,64963
1236982,-1.55E-05,2.74E-05,2.71E-05,-6.62E-02,5.77E-02,2.83E-02,64972
1237002,-1.56E-05,2.66E-05,2.85E-05,-6.62E-02,5.73E-02,2.88E-02,64978
1237022,-1.52E-05,2.75E-05,2.74E-05,-6.62E-02,5.83E-02,2.94E-02,64970
1237043,-1.47E-05,2.75E-05,2.86E-05,-6.61E-02,5.85E-02,2.96E-02,64969
1237063,-1.50E-05,2.74E-05,2.88E-05,-6.50E-02,5.91E-02,2.95E-02,64966
1237083,-1.46E-05,2.78E-05,2.88E-05,-6.54E-02,5.77E-02,2.88E-02,64969
1237103,-1.47E-05,2.71E-05,2.86E-05,-6.54E-02,5.81E-02,2.94E-02,64959
1237123,-1.50E-05,2.62E-05,2.86E-05,-6.57E-02,5.88E-02,2.92E-02,64975
1237143,-1.50E-05,2.72E-05,2.85E-05,-6.53E-02,5.89E-02,2.79E-02,64966
1237163,-1.53E-05,2.72E-05,2.78E-05,-6.53E-02,5.83E-02,2.80E-02,64975
1237183,-1.49E-05,2.71E-05,2.80E-05,-6.61E-02,5.77E-02,2.86E-02,64970
1237203,-1.50E-05,2.72E-05,2.83E-05,-6.64E-02,5.81E-02,2.86E-02,64971
1237223,-1.49E-05,2.78E-05,2.80E-05,-6.54E-02,5.75E-02,2.90E-02,64980
1237244,-1.44E-05,2.65E-05,2.80E-05,-6.61E-02,5.75E-02,2.94E-02,64962
1237264,-1.49E-05,2.68E-05,2.95E-05,-6.61E-02,5.75E-02,2.99E-02,64967
1237284,-1.43E-05,2.75E-05,2.78E-05,-6.49E-02,5.73E-02,2.90E-02,64969
1237304,-1.52E-05,2.71E-05,2.85E-05,-6.56E-02,5.87E-02,2.84E-02,64974
1237324,-1.50E-05,2.69E-05,2.77E-05,-6.58E-02,5.88E-02,2.84E-02,64973
1237344,-1.40E-05,2.72E-05,2.82E-05,-6.62E-02,5.80E-02,2.94E-02,64969
1237364,-1.59E-05,2.71E-05,2.78E-05,-6.56E-02,5.81E-02,2.96E-02,64966
1237384,-1.50E-05,2.69E-05,2.95E-05,-6.45E-02,5.81E-02,2.95E-02,64976
1237404,-1.50E-05,2.66E-05,2.83E-05,-6.48E-02,5.77E-02,2.87E-02,64972
1237424,-1.50E-05,2.75E-05,2.75E-05,-6.50E-02,5.76E-02,2.88E-02,64971
1237445,-1.58E-05,2.71E-05,2.86E-05,-6.57E-02,5.80E-02,2.95E-02,64954
1237465,-1.55E-05,2.80E-05,2.77E-05,-6.50E-02,5.72E-02,2.88E-02,64969
1237485,-1.52E-05,2.66E-05,2.80E-05,-6.42E-02,5.81E-02,2.87E-02,64966
1237505,-1.56E-05,2.74E-05,2.89E-05,-6.60E-02,5.80E-02,2.84E-02,64971
1237525,-1.40E-05,2.72E-05,2.88E-05,-6.48E-02,5.85E-02,2.91E-02,64967
1237545,-1.53E-05,2.66E-05,2.74E-05,-6.54E-02,5.79E-02,2.91E-02,64965
1237565,-1.50E-05,2.69E-05,2.80E-05,-6.50E-02,5.91E-02,2.94E-02,64968
1237585,-1.47E-05,2.75E-05,2.92E-05,-6.52E-02,5.85E-02,2.92E-02,64963
1237605,-1.47E-05,2.72E-05,2.80E-05,-6.61E-02,5.88E-02,2.87E-02,64960
1237625,-1.53E-05,2.72E-05,2.86E-05,-6.56E-02,5.73E-02,2.80E-02,64964
1237645,-1.56E-05,2.75E-05,2.83E-05,-6.49E-02,5.88E-02,2.80E-02,64973
1237665,-1.61E-05,2.62E-05,2.78E-05,-6.46E-02,5.80E-02,2.88E-02,64976
1237686,-1.55E-05,2.63E-05,2.85E-05,-6.56E-02,5.76E-02,2.87E-02,64969
1237706,-1.53E-05,2.75E-05,2.85E-05,-6.57E-02,5.77E-02,2.86E-02,64960
1237726,-1.53E-05,2.83E-05,2.74E-05,-6.52E-02,5.79E-02,2.94E-02,64963
1237746,-1.56E-05,2.68E-05,2.86E-05,-6.50E-02,5.69E-02,2.94E-02,64973
1237766,-1.59E-05,2.74E-05,2.80E-05,-6.57E-02,5.83E-02,2.95E-02,64975
1237786,-1.52E-05,2.66E-05,2.80E-05,-6.68E-02,5.84E-02,2.79E-02,64974
1237806,-1.47E-05,2.71E-05,2.65E-05,-6.58E-02,5.87E-02,2.94E-02,64971
1237826,-1.58E-05,2.75E-05,2.94E-05,-6.62E-02,5.76E-02,2.86E-02,64973
1237846,-1.55E-05,2.77E-05,2.91E-05,-6.62E-02,5.81E-02,2.91E-02,64968
1237866,-1.49E-05,2.68E-05,2.88E-05,-6.50E-02,5.81E-02,2.87E-02,64972
1237887,-1.58E-05,2.66E-05,2.78E-05,-6.57E-02,5.85E-02,2.84E-02,64971
1237907,-1.61E-05,2.65E-05,2.83E-05,-6.61E-02,5.81E-02,2.84E-02,64964
1237927,-1.50E-05,2.75E-05,2.75E-05,-6.65E-02,5.77E-02,2.87E-02,64966
1237947,-1.47E-05,2.66E-05,2.78E-05,-6.56E-02,5.80E-02,2.86E-02,64966
1237967,-1.52E-05,2.72E-05,2.83E-05,-6.54E-02,5.79E-02,2.86E-02,64967
1237987,-1.52E-05,2.54E-05,2.89E-05,-6.65E-02,5.85E-02,2.95E-02,64955
1238007,-1.59E-05,2.71E-05,2.75E-05,-6.53E-02,5.80E-02,2.95E-02,64963
1238027,-1.46E-05,2.71E-05,2.83E-05,-6.50E-02,5.73E-02,2.95E-02,64968
1238047,-1.46E-05,2.72E-05,2.77E-05,-6.50E-02,5.79E-02,2.95E-02,64968
1238067,-1.47E-05,2.78E-05,2.89E-05,-6.58E-02,5.80E-02,2.95E-02,64967
1238087,-1.53E-05,2.71E-05,2.91E-05,-6.66E-02,5.81E-02,2.88E-02,64967
1238107,-1.58E-05,2.71E-05,2.86E-05,-6.61E-02,5.88E-02,2.92E-02,64966
1238127,-1.56E-05,2.74E-05,2.75E-05,-6.57E-02,5.81E-02,2.86E-02,64964
1238148,-1.56E-05,2.62E-05,2.88E-05,-6.54E-02,5.84E-02,2.95E-02,64958
1238168,-1.55E-05,2.72E-05,2.80E-05,-6.56E-02,5.92E-02,2.92E-02,64970
1238188,-1.53E-05,2.60E-05,2.75E-05,-6.57E-02,5.89E-02,2.94E-02,64974
1238208,-1.43E-05,2.68E-05,2.80E-05,-6.49E-02,5.83E-02,2.95E-02,64971
1238228,-1.61E-05,2.78E-05,2.86E-05,-6.45E-02,5.81E-02,2.88E-02,64966
1238248,-1.58E-05,2.78E-05,2.83E-05,-6.65E-02,5.88E-02,2.96E-02,64964
1238268,-1.64E-05,2.66E-05,2.85E-05,-6.64E-02,5.80E-02,2.90E-02,64964
1238288,-1.49E-05,2.75E-05,2.82E-05,-6.61E-02,5.81E-02,2.86E-02,64964
1238308,-1.56E-05,2.68E-05,2.80E-05,-6.60E-02,5.75E-02,2.96E-02,64967
1238328,-1.55E-05,2.74E-05,2.83E-05,-6.65E-02,5.76E-02,2.94E-02,64971
1238348,-1.56E-05,2.72E-05,2.85E-05,-6.61E-02,5.81E-02,2.95E-02,64973
1238369,-1.50E-05,2.72E-05,2.86E-05,-6.64E-02,5.76E-02,2.90E-02,64962
1238389,-1.47E-05,2.66E-05,2.80E-05,-6.56E-02,5.85E-02,3.02E-02,64964
1238409,-1.43E-05,2.72E-05,2.77E-05,-6.53E-02,5.77E-02,2.90E-02,64978
1238429,-1.56E-05,2.77E-05,2.78E-05,-6.49E-02,5.77E-02,2.96E-02,64972
1238449,-1.52E-05,2.78E-05,2.78E-05,-6.56E-02,5.79E-02,2.95E-02,64958
1238469,-1.49E-05,2.69E-05,2.75E-05,-6.52E-02,5.84E-02,2.86E-02,64974
1238489,-1.44E-05,2.68E-05,2.82E-05,-6.57E-02,5.81E-02,2.87E-02,64964
1238509,-1.44E-05,2.65E-05,2.71E-05,-6.61E-02,5.76E-02,2.82E-02,64969
1238529,-1.55E-05,2.72E-05,2.78E-05,-6.60E-02,5.76E-02,2.87E-02,64969
1238549,-1.44E-05,2.72E-05,2.74E-05,-6.61E-02,5.76E-02,2.84E-02,64977
1238569,-1.53E-05,2.74E-05,2.75E-05,-6.58E-02,5.81E-02,2.90E-02,64972
1238590,-1.47E-05,2.68E-05,2.77E-05,-6.53E-02,5.81E-02,2.87E-02,64967
1238610,-1.55E-05,2.71E-05,2.89E-05,-6.61E-02,5.88E-02,2.86E-02,64964
1238630,-1.55E-05,2.69E-05,2.88E-05,-6.69E-02,5.71E-02,2.94E-02,64976
1238650,-1.53E-05,2.68E-05,2.80E-05,-6.57E-02,5.85E-02,2.88E-02,64971
1238670,-1.56E-05,2.60E-05,2.74E-05,-6.56E-02,5.77E-02,2.82E-02,64966
1238690,-1.56E-05,2.74E-05,2.88E-05,-6.58E-02,5.79E-02,2.91E-02,64977
1238710,-1.52E-05,2.66E-05,2.77E-05,-6.60E-02,5.83E-02,2.86E-02,64967
1238730,-1.50E-05,2.75E-05,2.88E-05,-6.58E-02,5.85E-02,2.82E-02,64971
1238750,-1.56E-05,2.75E-05,2.80E-05,-6.60E-02,5.87E-02,2.82E-02,64970
1238770,-1.41E-05,2.72E-05,2.77E-05,-6.62E-02,5.77E-02,2.96E-02,64970
1238790,-1.44E-05,2.75E-05,2.80E-05,-6.62E-02,5.79E-02,2.95E-02,64972
1238811,-1.46E-05,2.80E-05,2.78E-05,-6.53E-02,5.84E-02,2.88E-02,64976
1238831,-1.49E-05,2.69E-05,2.88E-05,-6.58E-02,5.73E-02,2.88E-02,64956
1238851,-1.52E-05,2.63E-05,2.91E-05,-6.60E-02,5.71E-02,2.91E-02,64977
1238871,-1.52E-05,2.63E-05,2.85E-05,-6.60E-02,5.83E-02,2.95E-02,64968
1238891,-1.61E-05,2.69E-05,2.83E-05,-6.61E-02,5.80E-02,2.94E-02,64969
1238911,-1.56E-05,2.69E-05,2.85E-05,-6.58E-02,5.93E-02,2.94E-02,64969
1238931,-1.61E-05,2.71E-05,2.82E-05,-6.60E-02,5.81E-02,2.96E-02,64966
1238951,-1.47E-05,2.80E-05,2.77E-05,-6.50E-02,5.72E-02,2.87E-02,64959
1238971,-1.50E-05,2.72E-05,2.91E-05,-6.60E-02,5.77E-02,2.79E-02,64974
1238991,-1.50E-05,2.75E-05,2.85E-05,-6.54E-02,5.92E-02,2.88E-02,64978
1239011,-1.55E-05,2.71E-05,2.89E-05,-6.62E-02,5.81E-02,2.87E-02,64969
1239031,-1.58E-05,2.68E-05,2.80E-05,-6.49E-02,5.83E-02,2.82E-02,64969
1239052,-1.59E-05,2.72E-05,2.74E-05,-6.54E-02,5.84E-02,2.92E-02,64969
1239072,-1.47E-05,2.71E-05,2.82E-05,-6.58E-02,5.81E-02,2.88E-02,64962
1239092,-1.63E-05,2.74E-05,2.85E-05,-6.57E-02,5.75E-02,2.83E-02,64973
1239112,-1.50E-05,2.72E-05,2.86E-05,-6.56E-02,5.80E-02,2.86E-02,64966
1239132,-1.46E-05,2.71E-05,2.78E-05,-6.60E-02,5.92E-02,2.88E-02,64975
1239152,-1.52E-05,2.69E-05,2.86E-05,-6.54E-02,5.88E-02,2.88E-02,64970
1239172,-1.47E-05,2.74E-05,2.85E-05,-6.57E-02,5.68E-02,2.83E-02,64974
1239192,-1.40E-05,2.65E-05,2.82E-05,-6.54E-02,5.81E-02,2.92E-02,64980
1239212,-1.46E-05,2.77E-05,2.85E-05,-6.50E-02,5.79E-02,2.80E-02,64968
1239232,-1.49E-05,2.71E-05,2.89E-05,-6.57E-02,5.79E-02,2.86E-02,64973
1239253,-1.49E-05,2.72E-05,2.83E-05,-6.66E-02,5.85E-02,2.98E-02,64966
1239273,-1.53E-05,2.83E-05,2.85E-05,-6.53E-02,5.91E-02,2.95E-02,64971
1239293,-1.46E-05,2.72E-05,2.72E-05,-6.49E-02,5.92E-02,2.94E-02,64973
1239313,-1.59E-05,2.66E-05,2.89E-05,-6.52E-02,5.81E-02,2.87E-02,64972
1239333,-1.46E-05,2.77E-05,2.83E-05,-6.57E-02,5.73E-02,2.90E-02,64967
1239353,-1.53E-05,2.69E-05,2.92E-05,-6.57E-02,5.71E-02,2.88E-02,64963
1239373,-1.46E-05,2.74E-05,2.78E-05,-6.49E-02,5.77E-02,2.86E-02,64964
1239393,-1.50E-05,2.68E-05,2.85E-05,-6.53E-02,5.77E-02,2.96E-02,64978
1239413,-1.53E-05,2.77E-05,2.78E-05,-6.60E-02,5.73E-02,2.84E-02,64971
1239433,-1.56E-05,2.75E-05,2.88E-05,-6.61E-02,5.75E-02,2.84E-02,64972
1239453,-1.53E-05,2.78E-05,2.80E-05,-6.52E-02,5.87E-02,2.94E-02,64971
1239474,-1.49E-05,2.60E-05,2.85E-05,-6.52E-02,5.87E-02,2.99E-02,64975
1239494,-1.52E-05,2.65E-05,2.82E-05,-6.52E-02,5.85E-02,2.88E-02,64974
1239514,-1.46E-05,2.77E-05,2.82E-05,-6.50E-02,5.85E-02,2.98E-02,64971
1239534,-1.50E-05,2.71E-05,2.89E-05,-6.65E-02,5.81E-02,2.84E-02,64978
1239554,-1.53E-05,2.75E-05,2.86E-05,-6.53E-02,5.77E-02,2.82E-02,64972
1239574,-1.55E-05,2.77E-05,2.80E-05,-6.50E-02,5.72E-02,2.87E-02,64965
1239594,-1.50E-05,2.77E-05,2.82E-05,-6.64E-02,5.77E-02,2.91E-02,64974
1239614,-1.53E-05,2.77E-05,2.91E-05,-6.61E-02,5.75E-02,2.79E-02,64960
1239634,-1.49E-05,2.74E-05,2.82E-05,-6.57E-02,5.75E-02,2.88E-02,64975
1239654,-1.56E-05,2.63E-05,2.83E-05,-6.64E-02,5.75E-02,2.87E-02,64974
1239674,-1.50E-05,2.69E-05,2.77E-05,-6.52E-02,5.80E-02,2.90E-02,64973
1239695,-1.47E-05,2.77E-05,2.80E-05,-6.57E-02,5.81E-02,2.90E-02,64972
1239715,-1.49E-05,2.74E-05,2.82E-05,-6.58E-02,5.79E-02,2.84E-02,64964
1239735,-1.46E-05,2.69E-05,2.74E-05,-6.56E-02,5.84E-02,2.88E-02,64959
1239755,-1.53E-05,2.72E-05,2.75E-05,-6.54E-02,5.85E-02,2.95E-02,64965
1239775,-1.49E-05,2.65E-05,2.75E-05,-6.56E-02,5.76E-02,2.83E-02,64972
1239795,-1.55E-05,2.71E-05,2.91E-05,-6.64E-02,5.79E-02,2.86E-02,64968
1239815,-1.58E-05,2.66E-05,2.83E-05,-6.64E-02,5.85E-02,2.92E-02,64966
1239835,-1.40E-05,2.77E-05,2.77E-05,-6.66E-02,5.76E-02,2.87E-02,64967
1239855,-1.64E-05,2.72E-05,2.72E-05,-6.60E-02,5.76E-02,2.86E-02,64961
1239875,-1.55E-05,2.71E-05,2.77E-05,-6.56E-02,5.81E-02,2.92E-02,64972
1239896,-1.47E-05,2.72E-05,2.82E-05,-6.62E-02,5.84E-02,2.95E-02,64960
1239916,-1.46E-05,2.66E-05,2.86E-05,-6.53E-02,5.75E-02,2.80E-02,64968
1239936,-1.50E-05,2.68E-05,2.80E-05,-6.50E-02,5.79E-02,2.90E-02,64974
1239956,-1.47E-05,2.69E-05,2.83E-05,-6.60E-02,5.76E-02,2.90E-02,64965
1239976,-1.50E-05,2.71E-05,2.85E-05,-6.58E-02,5.84E-02,2.92E-02,64975
1239996,-1.44E-05,2.74E-05,2.77E-05,-6.61E-02,5.76E-02,2.91E-02,64966
1240016,-1.56E-05,2.68E-05,2.85E-05,-6.54E-02,5.80E-02,2.96E-02,64966
1240036,-1.47E-05,2.78E-05,2.83E-05,-6.62E-02,5.81E-02,2.87E-02,64972
1240056,-1.52E-05,2.60E-05,2.83E-05,-6.56E-02,5.88E-02,2.92E-02,64961
1240076,-1.46E-05,2.71E-05,2.82E-05,-6.58E-02,5.77E-02,2.96E-02,64975
1240096,-1.50E-05,2.74E-05,2.88E-05,-6.53E-02,5.83E-02,2.91E-02,64969
1240116,-1.49E-05,2.68E-05,2.83E-05,-6.64E-02,5.80E-02,2.90E-02,64967
1240137,-1.44E-05,2.74E-05,2.77E-05,-6.64E-02,5.80E-02,2.90E-02,64960
1240157,-1.53E-05,2.72E-05,2.78E-05,-6.54E-02,5.81E-02,2.92E-02,64970
1240177,-1.44E-05,2.71E-05,2.77E-05,-6.54E-02,5.77E-02,2.95E-02,64974
1240197,-1.47E-05,2.68E-05,2.74E-05,-6.54E-02,5.80E-02,2.90E-02,64973
1240217,-1.49E-05,2.74E-05,2.86E-05,-6.54E-02,5.80E-02,2.87E-02,64968
1240237,-1.50E-05,2.62E-05,2.80E-05,-6.62E-02,5.75E-02,2.88E-02,64965
1240257,-1.50E-05,2.80E-05,2.82E-05,-6.53E-02,5.80E-02,2.94E-02,64969
1240277,-1.52E-05,2.77E-05,2.85E-05,-6.57E-02,5.77E-02,3.00E-02,64964
1240297,-1.46E-05,2.78E-05,2.83E-05,-6.56E-02,5.83E-02,2.90E-02,64962
1240317,-1.41E-05,2.75E-05,2.91E-05,-6.53E-02,5.75E-02,2.90E-02,64967
1240338,-1.55E-05,2.77E-05,2.69E-05,-6.64E-02,5.76E-02,2.94E-02,64967
1540339,-1.50E-05,2.75E-05,2.82E-05,-6.62E-02,5.83E-02,2.84E-02,64879
1540351,-1.52E-05,2.72E-05,2.72E-05,-6.69E-02,5.76E-02,2.96E-02,64882
1540371,-1.52E-05,2.82E-05,2.83E-05,-6.54E-02,5.84E-02,2.86E-02,64875
1540391,-1.55E-05,2.75E-05,2.77E-05,-6.58E-02,5.81E-02,2.87E-02,64877
1540411,-1.49E-05,2.72E-05,2.78E-05,-6.65E-02,5.92E-02,2.98E-02,64877
1540431,-1.55E-05,2.69E-05,2.83E-05,-6.49E-02,5.85E-02,2.96E-02,64889
1540451,-1.47E-05,2.75E-05,2.86E-05,-6.56E-02,5.85E-02,2.90E-02,64878
1540471,-1.49E-05,2.66E-05,2.80E-05,-6.66E-02,5.85E-02,2.83E-02,64872
1540491,-1.56E-05,2.86E-05,2.86E-05,-6.68E-02,5.81E-02,2.92E-02,64883
1540511,-1.61E-05,2.72E-05,2.78E-05,-6.65E-02,5.76E-02,2.91E-02,64879
1540531,-1.56E-05,2.69E-05,2.83E-05,-6.64E-02,5.79E-02,2.90E-02,64886
1540551,-1.52E-05,2.74E-05,2.88E-05,-6.60E-02,5.77E-02,2.88E-02,64873
1540571,-1.55E-05,2.66E-05,2.86E-05,-6.65E-02,5.72E-02,2.91E-02,64888
1540592,-1.58E-05,2.68E-05,2.80E-05,-6.69E-02,5.89E-02,2.92E-02,64878
1540612,-1.50E-05,2.85E-05,2.83E-05,-6.60E-02,5.72E-02,2.90E-02,64891
1540632,-1.50E-05,2.72E-05,2.82E-05,-6.64E-02,5.72E-02,2.94E-02,64882
1540652,-1.47E-05,2.66E-05,2.75E-05,-6.69E-02,5.77E-02,2.88E-02,64870
1540672,-1.44E-05,2.78E-05,2.82E-05,-6.60E-02,5.79E-02,2.82E-02,64885
1540692,-1.56E-05,2.65E-05,2.80E-05,-6.58E-02,5.76E-02,2.82E-02,64877
1540712,-1.53E-05,2.80E-05,2.82E-05,-6.53E-02,5.85E-02,2.91E-02,64888
1540732,-1.49E-05,2.77E-05,2.98E-05,-6.58E-02,5.77E-02,2.84E-02,64888
1540752,-1.47E-05,2.80E-05,2.75E-05,-6.62E-02,5.80E-02,2.78E-02,64878
1540772,-1.61E-05,2.75E-05,2.83E-05,-6.57E-02,5.77E-02,2.91E-02,64885
1540793,-1.55E-05,2.80E-05,2.88E-05,-6.61E-02,5.91E-02,2.87E-02,64881
1540813,-1.47E-05,2.66E-05,2.85E-05,-6.53E-02,5.84E-02,2.90E-02,64880
1540833,-1.50E-05,2.74E-05,2.74E-05,-6.53E-02,5.71E-02,2.94E-02,64881
1540853,-1.53E-05,2.80E-05,2.82E-05,-6.57E-02,5.84E-02,2.86E-02,64883
1540873,-1.55E-05,2.72E-05,2.86E-05,-6.53E-02,5.91E-02,2.88E-02,64881
1540893,-1.50E-05,2.75E-05,2.83E-05,-6.68E-02,5.84E-02,2.84E-02,64882
1540913,-1.50E-05,2.74E-05,2.82E-05,-6.65E-02,5.75E-02,2.98E-02,64872
1540933,-1.46E-05,2.69E-05,2.89E-05,-6.61E-02,5.89E-02,2.90E-02,64880
1540953,-1.58E-05,2.75E-05,2.72E-05,-6.52E-02,5.91E-02,2.84E-02,64876
1540973,-1.58E-05,2.82E-05,2.80E-05,-6.68E-02,5.89E-02,2.91E-02,64884
1540993,-1.55E-05,2.78E-05,2.83E-05,-6.69E-02,5.89E-02,2.95E-02,64880
1541013,-1.46E-05,2.69E-05,2.86E-05,-6.68E-02,5.83E-02,2.94E-02,64889
1541034,-1.63E-05,2.63E-05,2.91E-05,-6.66E-02,5.80E-02,2.79E-02,64885
1541054,-1.50E-05,2.71E-05,2.80E-05,-6.64E-02,5.97E-02,2.84E-02,64878
1541074,-1.59E-05,2.75E-05,2.72E-05,-6.58E-02,5.87E-02,2.88E-02,64883
1541094,-1.63E-05,2.78E-05,2.78E-05,-6.69E-02,5.75E-02,2.92E-02,64870
1541114,-1.47E-05,2.75E-05,2.71E-05,-6.68E-02,5.84E-02,2.87E-02,64876
1541134,-1.53E-05,2.78E-05,2.82E-05,-6.56E-02,5.84E-02,2.91E-02,64884
1541154,-1.47E-05,2.78E-05,2.72E-05,-6.52E-02,5.87E-02,2.84E-02,64880
1541174,-1.56E-05,2.78E-05,2.83E-05,-6.60E-02,5.81E-02,2.92E-02,64880
1541194,-1.50E-05,2.72E-05,2.86E-05,-6.70E-02,5.87E-02,2.86E-02,64879
1541214,-1.53E-05,2.83E-05,2.86E-05,-6.61E-02,5.91E-02,2.80E-02,64875
1541235,-1.53E-05,2.71E-05,2.88E-05,-6.52E-02,5.67E-02,2.84E-02,64886
1541255,-1.55E-05,2.74E-05,2.83E-05,-6.64E-02,5.85E-02,2.90E-02,64874
1541275,-1.52E-05,2.78E-05,2.86E-05,-6.58E-02,5.81E-02,2.92E-02,64874
1541295,-1.69E-05,2.74E-05,2.78E-05,-6.56E-02,5.83E-02,2.99E-02,64871
1541315,-1.59E-05,2.74E-05,2.83E-05,-6.54E-02,5.77E-02,2.80E-02,64883
1541335,-1.50E-05,2.68E-05,2.83E-05,-6.61E-02,5.87E-02,2.84E-02,64883
1541355,-1.46E-05,2.71E-05,2.77E-05,-6.62E-02,5.88E-02,2.84E-02,64872
1541375,-1.66E-05,2.75E-05,2.69E-05,-6.65E-02,5.84E-02,2.94E-02,64869
1541395,-1.52E-05,2.77E-05,2.83E-05,-6.58E-02,5.88E-02,2.88E-02,64883
1541415,-1.47E-05,2.75E-05,2.83E-05,-6.64E-02,5.77E-02,2.82E-02,64881
1541435,-1.53E-05,2.80E-05,2.77E-05,-6.60E-02,5.72E-02,2.84E-02,64870
1541455,-1.56E-05,2.74E-05,2.86E-05,-6.65E-02,5.87E-02,2.91E-02,64882
1541476,-1.49E-05,2.77E-05,2.78E-05,-6.65E-02,5.91E-02,2.91E-02,64879
1541496,-1.44E-05,2.78E-05,2.83E-05,-6.56E-02,5.81E-02,2.84E-02,64872
1541516,-1.44E-05,2.78E-05,2.83E-05,-6.69E-02,5.80E-02,2.86E-02,64874
1541536,-1.58E-05,2.86E-05,2.91E-05,-6.58E-02,5.91E-02,2.91E-02,64868
1541556,-1.55E-05,2.74E-05,2.86E-05,-6.60E-02,5.88E-02,2.87E-02,64881
1541576,-1.56E-05,2.71E-05,2.85E-05,-6.61E-02,5.79E-02,2.88E-02,64874
1541596,-1.56E-05,2.66E-05,2.85E-05,-6.62E-02,5.87E-02,2.90E-02,64880
1541616,-1.47E-05,2.82E-05,2.82E-05,-6.64E-02,5.87E-02,2.86E-02,64881
1541636,-1.58E-05,2.78E-05,2.82E-05,-6.68E-02,5.76E-02,2.84E-02,64877
1541656,-1.55E-05,2.71E-05,2.77E-05,-6.64E-02,5.79E-02,2.84E-02,64886
1541676,-1.53E-05,2.78E-05,2.82E-05,-6.65E-02,5.91E-02,2.92E-02,64877
1541696,-1.55E-05,2.77E-05,2.86E-05,-6.66E-02,5.87E-02,2.99E-02,64873
1541717,-1.44E-05,2.68E-05,2.94E-05,-6.56E-02,5.79E-02,2.82E-02,64880
1541737,-1.50E-05,2.77E-05,2.86E-05,-6.60E-02,5.80E-02,2.91E-02,64874
1541757,-1.56E-05,2.69E-05,2.80E-05,-6.64E-02,5.88E-02,2.84E-02,64872
1541777,-1.61E-05,2.83E-05,2.85E-05,-6.65E-02,5.87E-02,2.98E-02,64875
1541797,-1.55E-05,2.77E-05,2.86E-05,-6.73E-02,5.87E-02,2.92E-02,64880
1541817,-1.56E-05,2.68E-05,2.80E-05,-6.57E-02,5.89E-02,2.76E-02,64879
1541837,-1.49E-05,2.65E-05,2.83E-05,-6.65E-02,5.76E-02,2.95E-02,64877
1541857,-1.47E-05,2.75E-05,2.78E-05,-6.72E-02,5.84E-02,2.94E-02,64877
1541877,-1.55E-05,2.75E-05,2.80E-05,-6.66E-02,5.87E-02,2.90E-02,64883
1541897,-1.58E-05,2.75E-05,2.86E-05,-6.61E-02,5.80E-02,2.87E-02,64881
1541917,-1.46E-05,2.69E-05,2.88E-05,-6.64E-02,5.72E-02,2.92E-02,64875
1541937,-1.52E-05,2.74E-05,2.78E-05,-6.62E-02,5.84E-02,3.06E-02,64879
1541958,-1.52E-05,2.74E-05,2.80E-05,-6.66E-02,5.77E-02,2.91E-02,64878
1541978,-1.59E-05,2.68E-05,2.80E-05,-6.61E-02,5.79E-02,2.70E-02,64876
1541998,-1.52E-05,2.66E-05,2.78E-05,-6.53E-02,5.83E-02,2.86E-02,64883
1542018,-1.52E-05,2.71E-05,2.88E-05,-6.58E-02,5.80E-02,2.90E-02,64883
1542038,-1.44E-05,2.75E-05,2.97E-05,-6.65E-02,5.84E-02,2.88E-02,64877
1542058,-1.47E-05,2.68E-05,2.94E-05,-6.50E-02,5.92E-02,2.78E-02,64875
1542078,-1.55E-05,2.69E-05,2.83E-05,-6.60E-02,5.97E-02,2.86E-02,64879
1542098,-1.56E-05,2.82E-05,2.83E-05,-6.72E-02,5.85E-02,2.86E-02,64877
1542118,-1.59E-05,2.78E-05,2.85E-05,-6.60E-02,5.83E-02,2.87E-02,64876
1542138,-1.55E-05,2.74E-05,2.77E-05,-6.61E-02,5.84E-02,2.88E-02,64884
1542158,-1.41E-05,2.71E-05,2.75E-05,-6.56E-02,5.87E-02,2.90E-02,64879
1542178,-1.55E-05,2.71E-05,2.82E-05,-6.60E-02,5.87E-02,2.88E-02,64871
1542199,-1.56E-05,2.69E-05,2.75E-05,-6.60E-02,5.83E-02,2.86E-02,64872
1542219,-1.64E-05,2.69E-05,2.78E-05,-6.61E-02,5.80E-02,2.96E-02,64873
1542239,-1.46E-05,2.66E-05,2.75E-05,-6.57E-02,5.75E-02,2.83E-02,64873
1542259,-1.49E-05,2.69E-05,2.80E-05,-6.53E-02,5.77E-02,2.95E-02,64883
1542279,-1.63E-05,2.74E-05,2.83E-05,-6.49E-02,5.87E-02,2.92E-02,64884
1542299,-1.52E-05,2.74E-05,2.78E-05,-6.50E-02,5.91E-02,2.83E-02,64877
1542319,-1.50E-05,2.75E-05,2.74E-05,-6.60E-02,5.73E-02,2.91E-02,64878
1542339,-1.56E-05,2.77E-05,2.89E-05,-6.61E-02,5.88E-02,2.91E-02,64880
1542359,-1.58E-05,2.78E-05,2.83E-05,-6.65E-02,5.88E-02,2.86E-02,64870
1542379,-1.50E-05,2.66E-05,2.78E-05,-6.58E-02,5.81E-02,2.80E-02,64877
1542399,-1.52E-05,2.77E-05,2.75E-05,-6.62E-02,5.75E-02,2.90E-02,64886
1542419,-1.55E-05,2.69E-05,2.78E-05,-6.56E-02,5.83E-02,2.94E-02,64878
1542440,-1.52E-05,2.75E-05,2.78E-05,-6.66E-02,5.80E-02,2.92E-02,64875
1542460,-1.59E-05,2.69E-05,2.78E-05,-6.68E-02,5.85E-02,2.88E-02,64871
1542480,-1.50E-05,2.63E-05,2.75E-05,-6.65E-02,5.77E-02,2.90E-02,64868
1542500,-1.58E-05,2.75E-05,2.74E-05,-6.52E-02,5.87E-02,2.95E-02,64873
1542520,-1.46E-05,2.80E-05,2.88E-05,-6.62E-02,5.75E-02,2.96E-02,64867
1542540,-1.52E-05,2.71E-05,2.88E-05,-6.65E-02,5.84E-02,2.91E-02,64882
1542560,-1.47E-05,2.77E-05,2.82E-05,-6.61E-02,5.87E-02,2.86E-02,64869
1542580,-1.50E-05,2.78E-05,2.82E-05,-6.50E-02,5.84E-02,2.92E-02,64888
1542600,-1.53E-05,2.77E-05,2.83E-05,-6.62E-02,5.81E-02,2.91E-02,64873
1542620,-1.50E-05,2.71E-05,2.77E-05,-6.61E-02,5.84E-02,2.90E-02,64876
1542640,-1.47E-05,2.65E-05,2.80E-05,-6.58E-02,5.91E-02,2.83E-02,64875
1542660,-1.49E-05,2.88E-05,2.75E-05,-6.60E-02,5.73E-02,2.88E-02,64880
1542681,-1.43E-05,2.74E-05,2.80E-05,-6.65E-02,5.76E-02,2.87E-02,64879
1542701,-1.55E-05,2.69E-05,2.74E-05,-6.66E-02,5.80E-02,2.91E-02,64883
1542721,-1.63E-05,2.75E-05,2.82E-05,-6.62E-02,5.80E-02,2.82E-02,64885
1542741,-1.49E-05,2.75E-05,2.85E-05,-6.62E-02,5.83E-02,2.86E-02,64875
1542761,-1.49E-05,2.66E-05,2.83E-05,-6.56E-02,5.87E-02,2.86E-02,64874
1542781,-1.56E-05,2.77E-05,2.80E-05,-6.56E-02,5.75E-02,2.87E-02,64877
1542801,-1.47E-05,2.68E-05,2.89E-05,-6.64E-02,5.83E-02,3.02E-02,64877
1542821,-1.49E-05,2.66E-05,2.80E-05,-6.62E-02,5.80E-02,2.96E-02,64878
1542841,-1.58E-05,2.75E-05,2.86E-05,-6.65E-02,5.84E-02,2.94E-02,64880
1542861,-1.58E-05,2.74E-05,2.80E-05,-6.65E-02,5.76E-02,2.83E-02,64875
1542881,-1.58E-05,2.68E-05,2.77E-05,-6.52E-02,5.87E-02,2.91E-02,64872
1542901,-1.43E-05,2.71E-05,2.83E-05,-6.62E-02,5.79E-02,2.92E-02,64874
1542922,-1.55E-05,2.82E-05,2.85E-05,-6.58E-02,5.87E-02,2.98E-02,64883
1542942,-1.46E-05,2.71E-05,2.91E-05,-6.68E-02,5.87E-02,2.92E-02,64880
1542962,-1.47E-05,2.75E-05,2.85E-05,-6.57E-02,5.85E-02,2.87E-02,64873
1542982,-1.47E-05,2.77E-05,2.89E-05,-6.66E-02,5.92E-02,2.86E-02,64881
1543002,-1.50E-05,2.72E-05,2.82E-05,-6.65E-02,5.73E-02,2.94E-02,64868
1543022,-1.50E-05,2.69E-05,2.82E-05,-6.68E-02,5.76E-02,2.92E-02,64880
1543042,-1.44E-05,2.77E-05,2.86E-05,-6.65E-02,5.81E-02,2.90E-02,64885
1543062,-1.53E-05,2.78E-05,2.80E-05,-6.68E-02,5.81E-02,2.84E-02,64880
1543082,-1.56E-05,2.75E-05,2.91E-05,-6.56E-02,5.73E-02,2.92E-02,64874
1543102,-1.53E-05,2.74E-05,2.94E-05,-6.48E-02,5.81E-02,2.80E-02,64891
1543122,-1.43E-05,2.69E-05,2.82E-05,-6.65E-02,5.83E-02,2.90E-02,64889
1543142,-1.49E-05,2.74E-05,2.83E-05,-6.69E-02,5.81E-02,2.87E-02,64869
1543163,-1.53E-05,2.78E-05,2.80E-05,-6.68E-02,5.73E-02,2.98E-02,64884
1543183,-1.53E-05,2.66E-05,2.82E-05,-6.61E-02,5.75E-02,2.94E-02,64877
1543203,-1.47E-05,2.68E-05,2.85E-05,-6.58E-02,5.83E-02,2.92E-02,64879
1543223,-1.52E-05,2.75E-05,2.80E-05,-6.58E-02,5.80E-02,2.80E-02,64887
1543243,-1.46E-05,2.75E-05,2.89E-05,-6.56E-02,5.79E-02,2.82E-02,64877
1543263,-1.46E-05,2.72E-05,2.86E-05,-6.56E-02,5.87E-02,2.91E-02,64878
1543283,-1.49E-05,2.74E-05,2.78E-05,-6.62E-02,5.81E-02,2.88E-02,64878
1543303,-1.49E-05,2.74E-05,2.82E-05,-6.73E-02,5.87E-02,2.96E-02,64878
1543323,-1.56E-05,2.69E-05,2.85E-05,-6.56E-02,5.81E-02,2.90E-02,64881
1543343,-1.56E-05,2.71E-05,2.80E-05,-6.60E-02,5.83E-02,2.91E-02,64885
1543363,-1.53E-05,2.71E-05,2.85E-05,-6.72E-02,5.81E-02,2.98E-02,64880
1543383,-1.55E-05,2.69E-05,2.83E-05,-6.64E-02,5.87E-02,2.98E-02,64879
1543404,-1.56E-05,2.66E-05,2.88E-05,-6.56E-02,5.88E-02,2.91E-02,64869
1543424,-1.64E-05,2.69E-05,2.83E-05,-6.57E-02,5.88E-02,2.94E-02,64874
1543444,-1.58E-05,2.68E-05,2.80E-05,-6.65E-02,5.85E-02,2.94E-02,64877
1543464,-1.47E-05,2.78E-05,2.77E-05,-6.53E-02,5.85E-02,2.92E-02,64870
1543484,-1.59E-05,2.75E-05,2.78E-05,-6.64E-02,5.84E-02,2.87E-02,64880
1543504,-1.52E-05,2.71E-05,2.80E-05,-6.64E-02,5.83E-02,2.92E-02,64870
1543524,-1.53E-05,2.75E-05,2.77E-05,-6.62E-02,5.81E-02,2.86E-02,64871
1543544,-1.53E-05,2.68E-05,2.83E-05,-6.62E-02,5.81E-02,2.84E-02,64872
1543564,-1.52E-05,2.83E-05,2.74E-05,-6.62E-02,5.89E-02,2.92E-02,64877
1543584,-1.55E-05,2.71E-05,2.88E-05,-6.64E-02,5.91E-02,2.96E-02,64870
1543604,-1.44E-05,2.80E-05,2.88E-05,-6.62E-02,5.83E-02,2.84E-02,64888
1543624,-1.53E-05,2.78E-05,2.75E-05,-6.65E-02,5.79E-02,2.83E-02,64884
1543645,-1.63E-05,2.82E-05,2.85E-05,-6.64E-02,5.88E-02,2.88E-02,64878
1543665,-1.61E-05,2.72E-05,2.80E-05,-6.70E-02,5.80E-02,2.86E-02,64881
1543685,-1.55E-05,2.65E-05,2.78E-05,-6.65E-02,5.81E-02,2.86E-02,64886
1543705,-1.58E-05,2.78E-05,2.91E-05,-6.62E-02,5.84E-02,2.90E-02,64878
1543725,-1.53E-05,2.75E-05,2.86E-05,-6.62E-02,5.87E-02,2.94E-02,64876
1543745,-1.49E-05,2.72E-05,2.85E-05,-6.68E-02,5.83E-02,2.90E-02,64877
1543765,-1.61E-05,2.71E-05,2.83E-05,-6.64E-02,5.81E-02,2.98E-02,64874
1543785,-1.50E-05,2.66E-05,2.88E-05,-6.61E-02,5.79E-02,2.92E-02,64873
1543805,-1.53E-05,2.71E-05,2.85E-05,-6.60E-02,5.83E-02,2.95E-02,64873
1543825,-1.58E-05,2.77E-05,2.72E-05,-6.56E-02,5.79E-02,2.83E-02,64867
1543845,-1.49E-05,2.68E-05,2.88E-05,-6.61E-02,5.83E-02,2.91E-02,64884
1543865,-1.58E-05,2.85E-05,2.85E-05,-6.72E-02,5.80E-02,2.94E-02,64877
1543886,-1.56E-05,2.85E-05,2.71E-05,-6.57E-02,5.85E-02,2.92E-02,64879
1543906,-1.56E-05,2.86E-05,2.75E-05,-6.60E-02,5.79E-02,2.88E-02,64872
1543926,-1.52E-05,2.75E-05,2.94E-05,-6.62E-02,5.91E-02,2.98E-02,64885
1543946,-1.49E-05,2.74E-05,2.91E-05,-6.68E-02,5.79E-02,2.90E-02,64880
1543966,-1.50E-05,2.69E-05,2.83E-05,-6.62E-02,5.76E-02,2.78E-02,64874
1543986,-1.59E-05,2.78E-05,2.82E-05,-6.53E-02,5.85E-02,2.84E-02,64885
1544006,-1.55E-05,2.66E-05,2.83E-05,-6.54E-02,5.89E-02,2.94E-02,64872
1544026,-1.56E-05,2.71E-05,2.89E-05,-6.61E-02,5.88E-02,2.92E-02,64877
1544046,-1.56E-05,2.71E-05,2.83E-05,-6.62E-02,5.83E-02,2.96E-02,64879
1544066,-1.49E-05,2.68E-05,2.74E-05,-6.62E-02,5.85E-02,3.02E-02,64886
1544086,-1.58E-05,2.85E-05,2.85E-05,-6.62E-02,5.75E-02,2.92E-02,64876
1544106,-1.58E-05,2.65E-05,2.80E-05,-6.70E-02,5.75E-02,2.91E-02,64880
1544127,-1.53E-05,2.65E-05,2.82E-05,-6.65E-02,5.88E-02,2.80E-02,64881
1544147,-1.61E-05,2.83E-05,2.89E-05,-6.54E-02,5.88E-02,2.94E-02,64883
1544167,-1.58E-05,2.75E-05,2.80E-05,-6.60E-02,5.77E-02,2.92E-02,64884
1544187,-1.55E-05,2.77E-05,2.75E-05,-6.49E-02,5.95E-02,2.92E-02,64883
1544207,-1.56E-05,2.71E-05,2.77E-05,-6.62E-02,5.83E-02,2.82E-02,64881
1544227,-1.56E-05,2.75E-05,2.77E-05,-6.61E-02,5.83E-02,2.72E-02,64874
1544247,-1.46E-05,2.69E-05,2.82E-05,-6.50E-02,5.83E-02,2.83E-02,64880
1544267,-1.53E-05,2.66E-05,2.85E-05,-6.58E-02,5.91E-02,2.92E-02,64874
1544287,-1.50E-05,2.68E-05,2.85E-05,-6.62E-02,5.89E-02,2.91E-02,64875
1544307,-1.58E-05,2.65E-05,2.86E-05,-6.53E-02,5.83E-02,2.88E-02,64884
1544327,-1.52E-05,2.77E-05,2.80E-05,-6.57E-02,5.87E-02,2.91E-02,64888
1544348,-1.47E-05,2.66E-05,2.77E-05,-6.65E-02,5.77E-02,2.84E-02,64879
1544368,-1.55E-05,2.75E-05,2.85E-05,-6.68E-02,5.84E-02,2.90E-02,64882
1544388,-1.55E-05,2.72E-05,2.80E-05,-6.66E-02,5.84E-02,2.91E-02,64874
1544408,-1.55E-05,2.71E-05,2.85E-05,-6.61E-02,5.80E-02,2.94E-02,64866
1544428,-1.53E-05,2.71E-05,2.80E-05,-6.64E-02,5.79E-02,2.91E-02,64884
1544448,-1.55E-05,2.80E-05,2.89E-05,-6.61E-02,5.85E-02,2.92E-02,64877
1544468,-1.49E-05,2.77E-05,2.82E-05,-6.60E-02,5.80E-02,2.96E-02,64870
1544488,-1.56E-05,2.75E-05,2.85E-05,-6.65E-02,5.77E-02,2.98E-02,64877
1544508,-1.56E-05,2.63E-05,2.88E-05,-6.61E-02,5.85E-02,2.94E-02,64871
1544528,-1.50E-05,2.80E-05,2.82E-05,-6.61E-02,5.77E-02,2.90E-02,64872
1544548,-1.55E-05,2.72E-05,2.78E-05,-6.56E-02,5.77E-02,2.91E-02,64872
1544568,-1.52E-05,2.71E-05,2.75E-05,-6.62E-02,5.81E-02,2.92E-02,64878
1544589,-1.49E-05,2.69E-05,2.86E-05,-6.56E-02,5.81E-02,2.87E-02,64871
1544609,-1.37E-05,2.66E-05,2.83E-05,-6.54E-02,5.80E-02,2.88E-02,64887
1544629,-1.63E-05,2.72E-05,2.77E-05,-6.50E-02,5.79E-02,2.92E-02,64871
1544649,-1.50E-05,2.71E-05,2.82E-05,-6.60E-02,5.88E-02,2.87E-02,64869
1544669,-1.53E-05,2.72E-05,2.77E-05,-6.61E-02,5.92E-02,2.95E-02,64880
1544689,-1.44E-05,2.71E-05,2.82E-05,-6.58E-02,5.76E-02,2.98E-02,64868
1544709,-1.38E-05,2.78E-05,2.82E-05,-6.66E-02,5.80E-02,2.84E-02,64879
1544729,-1.50E-05,2.77E-05,2.91E-05,-6.57E-02,5.91E-02,2.91E-02,64870
1544749,-1.55E-05,2.77E-05,2.82E-05,-6.58E-02,5.89E-02,2.94E-02,64879
1544769,-1.56E-05,2.78E-05,2.82E-05,-6.58E-02,5.76E-02,2.96E-02,64877
1544789,-1.52E-05,2.71E-05,2.80E-05,-6.56E-02,5.81E-02,2.96E-02,64886
1544809,-1.50E-05,2.74E-05,2.83E-05,-6.56E-02,5.87E-02,2.83E-02,64879
1544830,-1.55E-05,2.71E-05,2.89E-05,-6.56E-02,5.83E-02,2.92E-02,64882
1544850,-1.58E-05,2.82E-05,2.80E-05,-6.64E-02,5.93E-02,2.92E-02,64877
1544870,-1.50E-05,2.68E-05,2.88E-05,-6.57E-02,5.81E-02,2.88E-02,64880
1544890,-1.52E-05,2.72E-05,2.88E-05,-6.57E-02,5.83E-02,2.83E-02,64883
1544910,-1.56E-05,2.75E-05,2.80E-05,-6.58E-02,5.76E-02,2.86E-02,64888
1544930,-1.49E-05,2.83E-05,2.91E-05,-6.56E-02,5.73E-02,2.86E-02,64877
1544950,-1.53E-05,2.74E-05,2.83E-05,-6.60E-02,5.83E-02,2.87E-02,64869
1544970,-1.49E-05,2.78E-05,2.85E-05,-6.66E-02,5.76E-02,2.84E-02,64884
1544990,-1.49E-05,2.78E-05,2.83E-05,-6.57E-02,5.80E-02,2.88E-02,64880
1545010,-1.59E-05,2.68E-05,2.91E-05,-6.56E-02,5.80E-02,2.90E-02,64878
1545030,-1.50E-05,2.74E-05,2.82E-05,-6.56E-02,5.87E-02,2.87E-02,64875
1545050,-1.56E-05,2.72E-05,2.77E-05,-6.58E-02,5.87E-02,2.83E-02,64885
1545071,-1.56E-05,2.71E-05,2.82E-05,-6.54E-02,5.81E-02,2.87E-02,64873
1545091,-1.55E-05,2.71E-05,2.86E-05,-6.61E-02,5.81E-02,2.92E-02,64869
1545111,-1.58E-05,2.82E-05,2.88E-05,-6.58E-02,5.80E-02,2.84E-02,64877
1545131,-1.56E-05,2.72E-05,2.82E-05,-6.52E-02,5.81E-02,2.90E-02,64876
1545151,-1.47E-05,2.78E-05,2.89E-05,-6.61E-02,5.87E-02,2.92E-02,64876
1545171,-1.47E-05,2.80E-05,2.75E-05,-6.69E-02,5.75E-02,2.92E-02,64880
1545191,-1.44E-05,2.78E-05,2.74E-05,-6.66E-02,5.75E-02,2.91E-02,64872
1545211,-1.55E-05,2.86E-05,2.78E-05,-6.66E-02,5.77E-02,2.88E-02,64871
1545231,-1.58E-05,2.75E-05,2.80E-05,-6.58E-02,5.73E-02,2.87E-02,64879
1545251,-1.59E-05,2.72E-05,2.82E-05,-6.56E-02,5.79E-02,2.88E-02,64879
1545271,-1.47E-05,2.71E-05,2.95E-05,-6.54E-02,5.79E-02,2.87E-02,64878
1545291,-1.67E-05,2.71E-05,2.80E-05,-6.56E-02,5.73E-02,2.83E-02,64880
1545312,-1.50E-05,2.66E-05,2.75E-05,-6.53E-02,5.80E-02,2.95E-02,64882
1545332,-1.59E-05,2.85E-05,2.82E-05,-6.52E-02,5.83E-02,2.92E-02,64872
1845333,-1.55E-05,2.71E-05,2.86E-05,-6.68E-02,5.76E-02,2.92E-02,64744
1845353,-1.66E-05,2.74E-05,2.74E-05,-6.68E-02,5.83E-02,2.86E-02,64762
1845372,-1.46E-05,2.78E-05,2.80E-05,-6.60E-02,5.80E-02,2.84E-02,64750
1845392,-1.53E-05,2.78E-05,2.72E-05,-6.60E-02,5.80E-02,2.87E-02,64754
1845411,-1.55E-05,2.74E-05,2.80E-05,-6.60E-02,5.81E-02,2.96E-02,64758
1845430,-1.59E-05,2.72E-05,2.77E-05,-6.65E-02,5.81E-02,2.96E-02,64748
1845449,-1.49E-05,2.75E-05,2.82E-05,-6.66E-02,5.81E-02,2.90E-02,64756
1845469,-1.66E-05,2.72E-05,2.77E-05,-6.74E-02,5.87E-02,2.92E-02,64752
1845489,-1.55E-05,2.82E-05,2.83E-05,-6.66E-02,5.89E-02,2.98E-02,64755
1845509,-1.61E-05,2.83E-05,2.98E-05,-6.65E-02,5.79E-02,2.95E-02,64751
1845529,-1.55E-05,2.78E-05,2.80E-05,-6.68E-02,5.76E-02,2.86E-02,64749
1845549,-1.53E-05,2.71E-05,2.91E-05,-6.82E-02,5.91E-02,2.88E-02,64749
1845569,-1.58E-05,2.78E-05,2.83E-05,-6.73E-02,5.91E-02,2.90E-02,64755
1845590,-1.55E-05,2.68E-05,2.83E-05,-6.65E-02,5.81E-02,2.91E-02,64749
1845610,-1.58E-05,2.69E-05,2.80E-05,-6.69E-02,5.71E-02,2.91E-02,64747
1845630,-1.55E-05,2.75E-05,2.98E-05,-6.60E-02,5.85E-02,2.90E-02,64741
1845650,-1.58E-05,2.75E-05,2.86E-05,-6.69E-02,5.83E-02,2.91E-02,64750
1845670,-1.59E-05,2.69E-05,2.92E-05,-6.64E-02,5.89E-02,2.95E-02,64742
1845690,-1.50E-05,2.74E-05,2.82E-05,-6.58E-02,5.88E-02,2.88E-02,64747
1845710,-1.55E-05,2.75E-05,2.80E-05,-6.61E-02,5.87E-02,2.92E-02,64755
1845730,-1.61E-05,2.80E-05,2.86E-05,-6.66E-02,5.77E-02,2.94E-02,64752
1845750,-1.50E-05,2.74E-05,2.83E-05,-6.73E-02,5.73E-02,2.87E-02,64750
1845770,-1.58E-05,2.72E-05,2.77E-05,-6.68E-02,5.89E-02,2.94E-02,64748
1845790,-1.49E-05,2.74E-05,2.85E-05,-6.68E-02,5.92E-02,2.87E-02,64746
1845810,-1.59E-05,2.74E-05,2.83E-05,-6.68E-02,5.85E-02,2.88E-02,64749
1845831,-1.64E-05,2.65E-05,2.86E-05,-6.74E-02,5.85E-02,2.84E-02,64741
1845851,-1.46E-05,2.77E-05,2.80E-05,-6.64E-02,5.80E-02,2.79E-02,64742
1845871,-1.55E-05,2.80E-05,2.85E-05,-6.68E-02,5.84E-02,2.82E-02,64741
1845891,-1.61E-05,2.82E-05,2.85E-05,-6.69E-02,5.89E-02,2.91E-02,64750
1845911,-1.64E-05,2.77E-05,2.89E-05,-6.68E-02,5.96E-02,2.86E-02,64747
1845931,-1.49E-05,2.74E-05,2.85E-05,-6.68E-02,5.91E-02,2.92E-02,64753
1845951,-1.53E-05,2.75E-05,2.83E-05,-6.69E-02,5.84E-02,2.91E-02,64759
1845971,-1.46E-05,2.85E-05,2.74E-05,-6.64E-02,5.85E-02,2.99E-02,64751
1845991,-1.64E-05,2.78E-05,2.82E-05,-6.56E-02,5.80E-02,2.99E-02,64758
1846011,-1.53E-05,2.78E-05,2.86E-05,-6.60E-02,5.88E-02,2.96E-02,64751
1846031,-1.64E-05,2.75E-05,2.74E-05,-6.62E-02,5.80E-02,2.96E-02,64744
1846051,-1.56E-05,2.77E-05,2.78E-05,-6.57E-02,5.92E-02,3.02E-02,64753
1846072,-1.64E-05,2.77E-05,2.80E-05,-6.65E-02,5.88E-02,2.95E-02,64745
1846092,-1.53E-05,2.69E-05,2.78E-05,-6.72E-02,5.88E-02,2.94E-02,64743
1846112,-1.56E-05,2.74E-05,2.83E-05,-6.66E-02,5.95E-02,2.84E-02,64748
1846132,-1.56E-05,2.72E-05,2.85E-05,-6.68E-02,5.83E-02,2.91E-02,64757
1846152,-1.61E-05,2.82E-05,2.80E-05,-6.68E-02,5.87E-02,2.94E-02,64747
1846172,-1.67E-05,2.69E-05,2.83E-05,-6.57E-02,5.96E-02,2.94E-02,64744
1846192,-1.61E-05,2.77E-05,2.85E-05,-6.66E-02,5.93E-02,2.98E-02,64753
1846212,-1.52E-05,2.77E-05,2.88E-05,-6.68E-02,5.75E-02,2.88E-02,64745
1846232,-1.58E-05,2.68E-05,2.91E-05,-6.70E-02,5.87E-02,2.90E-02,64756
1846252,-1.50E-05,2.77E-05,2.80E-05,-6.65E-02,5.87E-02,2.88E-02,64752
1846272,-1.56E-05,2.80E-05,2.78E-05,-6.64E-02,5.81E-02,2.86E-02,64755
1846292,-1.52E-05,2.82E-05,2.89E-05,-6.74E-02,5.81E-02,2.88E-02,64755
1846313,-1.58E-05,2.69E-05,2.82E-05,-6.66E-02,5.85E-02,2.88E-02,64753
1846333,-1.58E-05,2.71E-05,2.88E-05,-6.69E-02,5.85E-02,2.94E-02,64750
1846353,-1.58E-05,2.78E-05,2.82E-05,-6.72E-02,5.83E-02,2.96E-02,64748
1846373,-1.55E-05,2.75E-05,2.82E-05,-6.66E-02,5.95E-02,2.96E-02,64749
1846393,-1.61E-05,2.83E-05,2.80E-05,-6.61E-02,5.87E-02,2.88E-02,64747
1846413,-1.50E-05,2.80E-05,2.91E-05,-6.64E-02,5.85E-02,2.82E-02,64750
1846433,-1.56E-05,2.75E-05,2.83E-05,-6.62E-02,5.85E-02,2.88E-02,64748
1846453,-1.53E-05,2.75E-05,2.88E-05,-6.65E-02,5.92E-02,2.91E-02,64739
1846473,-1.41E-05,2.75E-05,2.89E-05,-6.66E-02,5.89E-02,2.88E-02,64749
1846493,-1.49E-05,2.80E-05,2.77E-05,-6.64E-02,5.92E-02,2.99E-02,64746
1846513,-1.50E-05,2.72E-05,2.83E-05,-6.64E-02,5.97E-02,2.84E-02,64744
1846533,-1.52E-05,2.74E-05,2.89E-05,-6.72E-02,5.87E-02,2.96E-02,64741
1846554,-1.56E-05,2.69E-05,2.83E-05,-6.65E-02,5.75E-02,2.87E-02,64750
1846574,-1.50E-05,2.83E-05,2.86E-05,-6.66E-02,5.89E-02,2.91E-02,64753
1846594,-1.50E-05,2.77E-05,2.83E-05,-6.69E-02,5.81E-02,2.94E-02,64746
1846614,-1.59E-05,2.80E-05,2.82E-05,-6.64E-02,5.83E-02,2.95E-02,64764
1846634,-1.55E-05,2.75E-05,2.77E-05,-6.65E-02,5.85E-02,2.88E-02,64751
1846654,-1.46E-05,2.75E-05,2.82E-05,-6.60E-02,5.85E-02,2.95E-02,64762
1846674,-1.67E-05,2.69E-05,2.74E-05,-6.57E-02,5.84E-02,2.90E-02,64749
1846694,-1.55E-05,2.78E-05,2.88E-05,-6.69E-02,5.87E-02,2.87E-02,64751
1846714,-1.52E-05,2.80E-05,2.91E-05,-6.64E-02,5.89E-02,2.94E-02,64752
1846734,-1.56E-05,2.69E-05,2.83E-05,-6.68E-02,5.77E-02,2.94E-02,64756
1846754,-1.61E-05,2.74E-05,2.77E-05,-6.70E-02,5.79E-02,2.99E-02,64751
1846774,-1.53E-05,2.77E-05,2.77E-05,-6.72E-02,5.89E-02,3.03E-02,64751
1846795,-1.53E-05,2.75E-05,2.80E-05,-6.70E-02,5.84E-02,2.98E-02,64756
1846815,-1.52E-05,2.69E-05,2.94E-05,-6.65E-02,5.84E-02,2.90E-02,64753
1846835,-1.50E-05,2.75E-05,2.80E-05,-6.68E-02,5.92E-02,2.94E-02,64749
1846855,-1.61E-05,2.68E-05,2.77E-05,-6.69E-02,5.80E-02,2.91E-02,64758
1846875,-1.58E-05,2.69E-05,2.80E-05,-6.66E-02,5.91E-02,2.84E-02,64753
1846895,-1.55E-05,2.75E-05,2.80E-05,-6.65E-02,5.83E-02,2.87E-02,64751
1846915,-1.58E-05,2.77E-05,2.85E-05,-6.68E-02,5.92E-02,2.94E-02,64751
1846935,-1.59E-05,2.75E-05,2.82E-05,-6.68E-02,5.96E-02,2.94E-02,64754
1846955,-1.59E-05,2.69E-05,2.89E-05,-6.56E-02,5.80E-02,2.94E-02,64757
1846975,-1.58E-05,2.80E-05,2.86E-05,-6.65E-02,5.79E-02,2.88E-02,64749
1846995,-1.56E-05,2.74E-05,2.77E-05,-6.64E-02,5.89E-02,2.90E-02,64743
1847015,-1.61E-05,2.80E-05,2.83E-05,-6.65E-02,5.77E-02,2.99E-02,64747
1847035,-1.55E-05,2.80E-05,2.80E-05,-6.65E-02,5.88E-02,2.99E-02,64750
1847055,-1.55E-05,2.74E-05,2.89E-05,-6.66E-02,5.80E-02,3.03E-02,64754
1847076,-1.63E-05,2.74E-05,2.88E-05,-6.56E-02,5.80E-02,2.88E-02,64754
1847096,-1.43E-05,2.72E-05,2.86E-05,-6.56E-02,5.75E-02,2.84E-02,64757
1847116,-1.41E-05,2.77E-05,2.88E-05,-6.65E-02,5.79E-02,2.88E-02,64755
1847136,-1.56E-05,2.78E-05,2.80E-05,-6.74E-02,5.84E-02,2.95E-02,64742
1847156,-1.58E-05,2.74E-05,2.88E-05,-6.61E-02,5.85E-02,2.91E-02,64750
1847176,-1.53E-05,2.82E-05,2.88E-05,-6.70E-02,5.84E-02,2.92E-02,64743
1847196,-1.41E-05,2.72E-05,2.80E-05,-6.78E-02,5.87E-02,2.92E-02,64749
1847216,-1.58E-05,2.72E-05,2.80E-05,-6.72E-02,5.93E-02,2.95E-02,64741
1847236,-1.56E-05,2.75E-05,2.85E-05,-6.53E-02,5.83E-02,2.88E-02,64755
1847256,-1.49E-05,2.75E-05,2.85E-05,-6.56E-02,5.79E-02,2.83E-02,64752
1847276,-1.53E-05,2.75E-05,2.88E-05,-6.56E-02,5.92E-02,2.83E-02,64748
1847296,-1.58E-05,2.77E-05,2.74E-05,-6.62E-02,5.93E-02,2.99E-02,64751
1847316,-1.56E-05,2.71E-05,2.88E-05,-6.66E-02,5.71E-02,2.96E-02,64744
1847336,-1.52E-05,2.77E-05,2.82E-05,-6.60E-02,5.79E-02,2.90E-02,64750
1847357,-1.58E-05,2.75E-05,2.77E-05,-6.60E-02,5.81E-02,2.79E-02,64745
1847377,-1.66E-05,2.80E-05,2.75E-05,-6.62E-02,5.88E-02,2.91E-02,64749
1847397,-1.59E-05,2.68E-05,2.88E-05,-6.70E-02,5.89E-02,2.96E-02,64760
1847417,-1.58E-05,2.80E-05,2.95E-05,-6.61E-02,5.93E-02,2.87E-02,64743
1847437,-1.52E-05,2.82E-05,2.83E-05,-6.61E-02,5.95E-02,2.91E-02,64744
1847457,-1.50E-05,2.69E-05,2.89E-05,-6.65E-02,5.93E-02,2.88E-02,64746
1847477,-1.47E-05,2.82E-05,2.80E-05,-6.58E-02,5.76E-02,2.88E-02,64746
1847497,-1.58E-05,2.80E-05,2.91E-05,-6.68E-02,5.77E-02,2.99E-02,64748
1847517,-1.55E-05,2.74E-05,2.86E-05,-6.68E-02,5.76E-02,2.96E-02,64757
1847537,-1.47E-05,2.82E-05,2.82E-05,-6.66E-02,5.88E-02,2.95E-02,64750
1847557,-1.63E-05,2.69E-05,2.85E-05,-6.64E-02,5.85E-02,3.00E-02,64753
1847577,-1.56E-05,2.72E-05,2.83E-05,-6.66E-02,5.81E-02,2.86E-02,64755
1847598,-1.56E-05,2.71E-05,2.83E-05,-6.66E-02,5.91E-02,2.86E-02,64753
1847618,-1.52E-05,2.69E-05,2.83E-05,-6.72E-02,5.85E-02,2.90E-02,64742
1847638,-1.56E-05,2.77E-05,2.72E-05,-6.68E-02,5.81E-02,2.94E-02,64758
1847658,-1.56E-05,2.77E-05,2.78E-05,-6.68E-02,5.89E-02,2.88E-02,64749
1847678,-1.58E-05,2.69E-05,2.89E-05,-6.64E-02,5.89E-02,2.91E-02,64754
1847698,-1.59E-05,2.66E-05,2.86E-05,-6.77E-02,5.77E-02,2.79E-02,64753
1847718,-1.61E-05,2.77E-05,2.80E-05,-6.73E-02,5.84E-02,2.88E-02,64755
1847738,-1.58E-05,2.85E-05,2.89E-05,-6.61E-02,5.84E-02,2.83E-02,64758
1847758,-1.56E-05,2.74E-05,2.86E-05,-6.54E-02,5.79E-02,2.86E-02,64758
1847778,-1.56E-05,2.74E-05,2.74E-05,-6.61E-02,5.73E-02,2.87E-02,64753
1847798,-1.50E-05,2.85E-05,2.82E-05,-6.66E-02,5.83E-02,2.98E-02,64758
1847818,-1.53E-05,2.68E-05,2.88E-05,-6.66E-02,5.80E-02,2.98E-02,64754
1847838,-1.61E-05,2.77E-05,2.83E-05,-6.62E-02,5.83E-02,2.91E-02,64754
1847858,-1.56E-05,2.72E-05,2.83E-05,-6.73E-02,5.85E-02,2.83E-02,64757
1847879,-1.72E-05,2.69E-05,2.78E-05,-6.66E-02,5.96E-02,2.95E-02,64754
1847899,-1.61E-05,2.72E-05,2.78E-05,-6.65E-02,5.83E-02,2.91E-02,64755
1847919,-1.50E-05,2.66E-05,2.85E-05,-6.69E-02,5.83E-02,3.02E-02,64755
1847939,-1.59E-05,2.77E-05,2.82E-05,-6.62E-02,5.85E-02,2.91E-02,64751
1847959,-1.58E-05,2.71E-05,2.83E-05,-6.64E-02,5.87E-02,2.91E-02,64755
1847979,-1.59E-05,2.75E-05,2.80E-05,-6.64E-02,5.91E-02,2.88E-02,64758
1847999,-1.58E-05,2.69E-05,2.82E-05,-6.62E-02,5.80E-02,2.96E-02,64756
1848019,-1.58E-05,2.74E-05,2.82E-05,-6.62E-02,5.83E-02,3.02E-02,64754
1848039,-1.61E-05,2.80E-05,2.75E-05,-6.61E-02,5.79E-02,2.96E-02,64751
1848059,-1.61E-05,2.71E-05,2.83E-05,-6.61E-02,5.85E-02,2.87E-02,64755
1848079,-1.50E-05,2.77E-05,2.77E-05,-6.66E-02,5.76E-02,2.87E-02,64745
1848099,-1.58E-05,2.82E-05,2.78E-05,-6.72E-02,5.83E-02,2.92E-02,64749
1848120,-1.53E-05,2.71E-05,2.83E-05,-6.70E-02,5.76E-02,2.96E-02,64751
1848140,-1.50E-05,2.74E-05,2.92E-05,-6.60E-02,5.87E-02,2.90E-02,64752
1848160,-1.55E-05,2.69E-05,2.77E-05,-6.54E-02,5.80E-02,2.88E-02,64747
1848180,-1.56E-05,2.74E-05,2.78E-05,-6.65E-02,5.91E-02,2.91E-02,64744
1848200,-1.56E-05,2.72E-05,2.72E-05,-6.66E-02,5.81E-02,2.94E-02,64753
1848220,-1.55E-05,2.72E-05,2.75E-05,-6.61E-02,5.79E-02,2.92E-02,64746
1848240,-1.53E-05,2.74E-05,2.78E-05,-6.62E-02,5.80E-02,2.86E-02,64753
1848260,-1.53E-05,2.71E-05,2.85E-05,-6.61E-02,5.83E-02,2.84E-02,64745
1848280,-1.52E-05,2.75E-05,2.82E-05,-6.69E-02,5.93E-02,2.95E-02,64745
1848300,-1.53E-05,2.74E-05,2.82E-05,-6.72E-02,5.85E-02,2.95E-02,64757
1848320,-1.50E-05,2.72E-05,2.85E-05,-6.68E-02,5.73E-02,2.82E-02,64761
1848340,-1.56E-05,2.68E-05,2.75E-05,-6.62E-02,5.83E-02,2.94E-02,64751
1848360,-1.67E-05,2.82E-05,2.71E-05,-6.64E-02,5.83E-02,2.88E-02,64749
1848380,-1.49E-05,2.83E-05,2.78E-05,-6.61E-02,5.89E-02,2.95E-02,64756
1848401,-1.58E-05,2.77E-05,2.75E-05,-6.66E-02,5.80E-02,2.87E-02,64746
1848421,-1.55E-05,2.75E-05,2.89E-05,-6.62E-02,5.92E-02,2.84E-02,64757
1848441,-1.46E-05,2.77E-05,2.82E-05,-6.68E-02,5.77E-02,2.92E-02,64743
1848461,-1.50E-05,2.66E-05,2.74E-05,-6.78E-02,5.81E-02,2.88E-02,64752
1848481,-1.58E-05,2.78E-05,2.75E-05,-6.68E-02,5.85E-02,2.90E-02,64745
1848501,-1.56E-05,2.80E-05,2.86E-05,-6.61E-02,5.96E-02,2.90E-02,64741
1848521,-1.55E-05,2.72E-05,2.78E-05,-6.76E-02,6.04E-02,2.96E-02,64752
1848541,-1.55E-05,2.72E-05,2.83E-05,-6.61E-02,5.89E-02,2.91E-02,64756
1848561,-1.53E-05,2.78E-05,2.83E-05,-6.66E-02,5.85E-02,2.88E-02,64748
1848581,-1.49E-05,2.71E-05,2.82E-05,-6.73E-02,5.83E-02,2.90E-02,64747
1848601,-1.55E-05,2.75E-05,2.91E-05,-6.70E-02,5.91E-02,3.02E-02,64747
1848621,-1.59E-05,2.74E-05,2.80E-05,-6.72E-02,5.92E-02,2.91E-02,64752
1848641,-1.59E-05,2.75E-05,2.80E-05,-6.62E-02,5.87E-02,2.86E-02,64749
1848661,-1.55E-05,2.71E-05,2.89E-05,-6.64E-02,5.76E-02,2.74E-02,64742
1848682,-1.61E-05,2.77E-05,2.80E-05,-6.72E-02,5.93E-02,2.92E-02,64748
1848702,-1.58E-05,2.82E-05,2.85E-05,-6.74E-02,5.88E-02,2.94E-02,64746
1848722,-1.58E-05,2.74E-05,2.82E-05,-6.66E-02,5.99E-02,2.96E-02,64747
1848742,-1.58E-05,2.72E-05,2.74E-05,-6.60E-02,5.81E-02,2.79E-02,64747
1848762,-1.55E-05,2.68E-05,2.78E-05,-6.52E-02,5.99E-02,2.90E-02,64756
1848782,-1.52E-05,2.85E-05,2.75E-05,-6.64E-02,5.81E-02,2.86E-02,64748
1848802,-1.52E-05,2.72E-05,2.85E-05,-6.65E-02,5.89E-02,2.90E-02,64746
1848822,-1.61E-05,2.74E-05,2.85E-05,-6.65E-02,5.81E-02,2.88E-02,64748
1848842,-1.53E-05,2.72E-05,2.83E-05,-6.65E-02,5.79E-02,2.78E-02,64757
1848862,-1.59E-05,2.75E-05,2.89E-05,-6.72E-02,5.79E-02,3.03E-02,64743
1848882,-1.49E-05,2.82E-05,2.86E-05,-6.68E-02,5.87E-02,2.98E-02,64740
1848902,-1.59E-05,2.75E-05,2.82E-05,-6.64E-02,5.88E-02,2.82E-02,64752
1848923,-1.52E-05,2.69E-05,2.78E-05,-6.74E-02,5.80E-02,2.82E-02,64753
1848943,-1.49E-05,2.69E-05,2.80E-05,-6.73E-02,5.95E-02,2.99E-02,64747
1848963,-1.55E-05,2.72E-05,2.86E-05,-6.74E-02,5.85E-02,2.94E-02,64749
1848983,-1.67E-05,2.80E-05,2.83E-05,-6.65E-02,5.83E-02,2.86E-02,64748
1849003,-1.55E-05,2.71E-05,2.71E-05,-6.66E-02,5.75E-02,2.90E-02,64746
1849023,-1.61E-05,2.74E-05,2.82E-05,-6.58E-02,5.81E-02,2.94E-02,64751
1849043,-1.49E-05,2.66E-05,2.69E-05,-6.72E-02,5.88E-02,3.04E-02,64746
1849063,-1.61E-05,2.68E-05,2.75E-05,-6.81E-02,5.84E-02,2.98E-02,64749
1849083,-1.61E-05,2.65E-05,2.80E-05,-6.72E-02,5.83E-02,2.86E-02,64750
1849103,-1.56E-05,2.68E-05,2.74E-05,-6.68E-02,5.85E-02,2.86E-02,64751
1849123,-1.59E-05,2.83E-05,2.88E-05,-6.62E-02,5.88E-02,2.88E-02,64758
1849143,-1.59E-05,2.69E-05,2.75E-05,-6.57E-02,5.84E-02,2.98E-02,64756
1849163,-1.46E-05,2.71E-05,2.78E-05,-6.69E-02,5.83E-02,2.87E-02,64752
1849183,-1.61E-05,2.83E-05,2.80E-05,-6.64E-02,5.85E-02,2.91E-02,64744
1849204,-1.52E-05,2.72E-05,2.88E-05,-6.60E-02,5.88E-02,2.83E-02,64749
1849224,-1.52E-05,2.77E-05,2.86E-05,-6.66E-02,5.85E-02,2.86E-02,64738
1849244,-1.55E-05,2.71E-05,2.82E-05,-6.57E-02,5.84E-02,2.82E-02,64746
1849264,-1.47E-05,2.69E-05,2.82E-05,-6.68E-02,5.89E-02,2.87E-02,64745
1849284,-1.55E-05,2.82E-05,2.83E-05,-6.70E-02,5.79E-02,2.95E-02,64758
1849304,-1.61E-05,2.71E-05,2.89E-05,-6.72E-02,5.80E-02,2.92E-02,64747
1849324,-1.59E-05,2.80E-05,2.94E-05,-6.62E-02,5.87E-02,2.91E-02,64752
1849344,-1.58E-05,2.89E-05,2.89E-05,-6.65E-02,5.93E-02,2.95E-02,64743
1849364,-1.59E-05,2.74E-05,2.86E-05,-6.62E-02,5.87E-02,2.87E-02,64746
1849384,-1.53E-05,2.78E-05,2.80E-05,-6.76E-02,5.84E-02,2.92E-02,64755
1849404,-1.55E-05,2.69E-05,2.91E-05,-6.68E-02,5.91E-02,2.90E-02,64746
1849424,-1.50E-05,2.83E-05,2.83E-05,-6.61E-02,5.95E-02,2.91E-02,64760
1849445,-1.56E-05,2.68E-05,2.80E-05,-6.65E-02,5.93E-02,3.03E-02,64748
